trials.thisRepN,trials.thisTrialN,trials.thisN,trials.thisIndex,thisRow.t,notes,trial.started,num_distr,fixation.started,target.started,mouse.started,trial.stopped,mouse.x,mouse.y,mouse.leftButton,mouse.midButton,mouse.rightButton,mouse.time,mouse.clicked_name,participant,session,date,expName,psychopyVersion,frameRate,expStart,
0,0,0,0,0.02411260000008042,,0.0045506999995268416,5,0.02411260000008042,0.02411260000008042,0.015540999997028848,1.3472684000007575,[0.18888888888888888],[0.019444444444444445],[1],[0],[0],[1.3309685999993235],['target'],278390,001,2024-10-08_12h53.29.987,visualsearch,2024.1.5,None,2024-10-08 12h53.36.134334 +0530,
1,0,1,0,1.3755332000000635,,1.3597826000004716,5,1.3755332000000635,1.3755332000000635,0.01110530000005383,2.4470070999996096,[0.09814814814814815],[-0.07037037037037037],[1],[0],[0],[1.0760899999986577],['target'],278390,001,2024-10-08_12h53.29.987,visualsearch,2024.1.5,None,2024-10-08 12h53.36.134334 +0530,
2,0,2,0,2.480833800000255,,2.4491230999992695,10,2.480833800000255,2.480833800000255,0.021314900001016213,4.245500600001833,[0.43703703703703706],[-0.43703703703703706],[1],[0],[0],[1.7751430999996956],['target'],278390,001,2024-10-08_12h53.29.987,visualsearch,2024.1.5,None,2024-10-08 12h53.36.134334 +0530,
3,0,3,0,4.28272410000136,,4.247736299999815,10,4.28272410000136,4.28272410000136,0.02054370000041672,6.726849599999696,[0.42685185185185187],[0.3055555555555556],[1],[0],[0],[2.4587066999993112],['target'],278390,001,2024-10-08_12h53.29.987,visualsearch,2024.1.5,None,2024-10-08 12h53.36.134334 +0530,
4,0,4,0,6.7469044999998005,,6.729883600000903,5,6.7469044999998005,6.7469044999998005,0.012650699998630444,7.859866599999805,[-0.1388888888888889],[0.1962962962962963],[1],[0],[0],[1.11769170000116],['target'],278390,001,2024-10-08_12h53.29.987,visualsearch,2024.1.5,None,2024-10-08 12h53.36.134334 +0530,
5,0,5,0,7.8976371999997355,,7.862477400001808,10,7.8976371999997355,7.8976371999997355,0.023482200002035825,8.992841999999655,[0.4],[0.2759259259259259],[1],[0],[0],[1.1075362999981735],['target'],278390,001,2024-10-08_12h53.29.987,visualsearch,2024.1.5,None,2024-10-08 12h53.36.134334 +0530,
6,0,6,0,9.013394900001003,,8.995156699998915,5,9.013394900001003,9.013394900001003,0.012524800000392133,10.458612400001584,[-0.037037037037037035],[-0.17222222222222222],[1],[0],[0],[1.451110100002552],['target'],278390,001,2024-10-08_12h53.29.987,visualsearch,2024.1.5,None,2024-10-08 12h53.36.134334 +0530,
7,0,7,0,10.495330800000374,,10.461792900001456,10,10.495330800000374,10.495330800000374,0.02294629999960307,11.824243800001568,[0.21481481481481482],[0.19166666666666668],[1],[0],[0],[1.3396697000025597],['target'],278390,001,2024-10-08_12h53.29.987,visualsearch,2024.1.5,None,2024-10-08 12h53.36.134334 +0530,
8,0,8,0,11.84555900000123,,11.82764429999952,5,11.84555900000123,11.84555900000123,0.012738099998387042,12.823424000001978,[0.275],[0.2814814814814815],[1],[0],[0],[0.9835198000000673],['target'],278390,001,2024-10-08_12h53.29.987,visualsearch,2024.1.5,None,2024-10-08 12h53.36.134334 +0530,
9,0,9,0,12.844459800002369,,12.825650300001143,5,12.844459800002369,12.844459800002369,0.012167100001533981,13.873634300001868,[0.42777777777777776],[0.11944444444444445],[1],[0],[0],[1.0360140999982832],['target'],278390,001,2024-10-08_12h53.29.987,visualsearch,2024.1.5,None,2024-10-08 12h53.36.134334 +0530,
10,0,10,0,13.912016099999164,,13.875778500001616,10,13.912016099999164,13.912016099999164,0.02354620000187424,16.75467370000115,[0.26296296296296295],[-0.3907407407407407],[1],[0],[0],[2.8555108000000473],['target'],278390,001,2024-10-08_12h53.29.987,visualsearch,2024.1.5,None,2024-10-08 12h53.36.134334 +0530,
11,0,11,0,16.790114899999026,,16.756891900000483,10,16.790114899999026,16.790114899999026,0.01990289999957895,17.96987850000005,[0.2601851851851852],[-0.40370370370370373],[0],[0],[1],[1.193023699997866],['target'],278390,001,2024-10-08_12h53.29.987,visualsearch,2024.1.5,None,2024-10-08 12h53.36.134334 +0530,
12,0,12,0,17.993643300000258,,17.972667699999874,5,17.993643300000258,17.993643300000258,0.011519700001372257,19.06990290000249,[0.07592592592592592],[-0.3333333333333333],[1],[0],[0],[1.0857012000014947],['target'],278390,001,2024-10-08_12h53.29.987,visualsearch,2024.1.5,None,2024-10-08 12h53.36.134334 +0530,
13,0,13,0,19.0938055000006,,19.072885800000222,5,19.0938055000006,19.0938055000006,0.010050299999420531,21.035528100001102,[-0.36666666666666664],[-0.36666666666666664],[1],[0],[0],[1.9528465000003052],['target'],278390,001,2024-10-08_12h53.29.987,visualsearch,2024.1.5,None,2024-10-08 12h53.36.134334 +0530,
14,0,14,0,21.06541339999967,,21.03813269999955,5,21.06541339999967,21.06541339999967,0.012528799998108298,22.86686220000047,[-0.1574074074074074],[0.3861111111111111],[1],[0],[0],[1.8165900999993028],['target'],278390,001,2024-10-08_12h53.29.987,visualsearch,2024.1.5,None,2024-10-08 12h53.36.134334 +0530,
15,0,15,0,22.911954300001526,,22.869061400000646,10,22.911954300001526,22.911954300001526,0.02166679999936605,24.933285999999498,[-0.11018518518518519],[-0.08148148148148149],[1],[0],[0],[2.0427599999966333],['target'],278390,001,2024-10-08_12h53.29.987,visualsearch,2024.1.5,None,2024-10-08 12h53.36.134334 +0530,
16,0,16,0,24.952220999999554,,24.93559820000155,5,24.952220999999554,24.952220999999554,0.011170000001584413,28.148581000001286,[0.16944444444444445],[0.49722222222222223],[1],[0],[0],[3.2017760000017006],['target'],278390,001,2024-10-08_12h53.29.987,visualsearch,2024.1.5,None,2024-10-08 12h53.36.134334 +0530,
17,0,17,0,28.166873099999066,,28.151321800000005,5,28.166873099999066,28.166873099999066,0.010295200001564808,29.547009000001708,[-0.2564814814814815],[-0.020370370370370372],[1],[0],[0],[1.3856839000000036],['target'],278390,001,2024-10-08_12h53.29.987,visualsearch,2024.1.5,None,2024-10-08 12h53.36.134334 +0530,
18,0,18,0,29.584598199999164,,29.549563299999136,10,29.584598199999164,29.584598199999164,0.020785000000614673,31.59490630000073,[-0.45185185185185184],[-0.18796296296296297],[1],[0],[0],[2.0250897000005352],['target'],278390,001,2024-10-08_12h53.29.987,visualsearch,2024.1.5,None,2024-10-08 12h53.36.134334 +0530,
19,0,19,0,31.635268500001985,,31.598275200001808,10,31.635268500001985,31.635268500001985,0.022188599999935832,32.743783100002474,[-0.000925925925925926],[-0.14537037037037037],[1],[0],[0],[1.1238998000007996],['target'],278390,001,2024-10-08_12h53.29.987,visualsearch,2024.1.5,None,2024-10-08 12h53.36.134334 +0530,
20,0,20,0,32.78660890000174,,32.74598619999961,10,32.78660890000174,32.78660890000174,0.021457099999679485,34.45446169999923,[-0.4925925925925926],[0.04814814814814815],[1],[0],[0],[1.687024200000451],['target'],278390,001,2024-10-08_12h53.29.987,visualsearch,2024.1.5,None,2024-10-08 12h53.36.134334 +0530,
21,0,21,0,34.51272090000202,,34.45673760000136,10,34.51272090000202,34.51272090000202,0.029136000001017237,36.25847509999949,[-0.31851851851851853],[0.3675925925925926],[1],[0],[0],[1.772696399999404],['target'],278390,001,2024-10-08_12h53.29.987,visualsearch,2024.1.5,None,2024-10-08 12h53.36.134334 +0530,
22,0,22,0,36.33312970000043,,36.260855500000616,10,36.33312970000043,36.33312970000043,0.03457169999819598,38.443556700000045,[0.35462962962962963],[0.3453703703703704],[1],[0],[0],[2.1483017999998992],['target'],278390,001,2024-10-08_12h53.29.987,visualsearch,2024.1.5,None,2024-10-08 12h53.36.134334 +0530,
23,0,23,0,38.47776330000124,,38.44598930000211,5,38.47776330000124,38.47776330000124,0.022898700000951067,40.056503600000724,[-0.14629629629629629],[-0.25],[1],[0],[0],[1.5878116999992926],['target'],278390,001,2024-10-08_12h53.29.987,visualsearch,2024.1.5,None,2024-10-08 12h53.36.134334 +0530,
24,0,24,0,40.081766700001026,,40.05890300000101,5,40.081766700001026,40.081766700001026,0.011195200000656769,41.2726533999994,[-0.4777777777777778],[0.11481481481481481],[1],[0],[0],[1.2026766000017233],['target'],278390,001,2024-10-08_12h53.29.987,visualsearch,2024.1.5,None,2024-10-08 12h53.36.134334 +0530,
25,0,25,0,41.30821880000076,,41.27478510000219,10,41.30821880000076,41.30821880000076,0.020723900001030415,46.43590150000091,[-0.11388888888888889],[0.08518518518518518],[1],[0],[0],[5.140177600002062],[],278390,001,2024-10-08_12h53.29.987,visualsearch,2024.1.5,None,2024-10-08 12h53.36.134334 +0530,
26,0,26,0,46.48682330000156,,46.43878609999956,10,46.48682330000156,46.48682330000156,0.025570900001184782,48.300477100001444,[-0.08055555555555556],[-0.07222222222222222],[1],[0],[0],[1.8363238999991154],['target'],278390,001,2024-10-08_12h53.29.987,visualsearch,2024.1.5,None,2024-10-08 12h53.36.134334 +0530,
27,0,27,0,48.32048990000112,,48.302679600001284,5,48.32048990000112,48.32048990000112,0.011311700000078417,49.56832330000179,[-0.025],[-0.2675925925925926],[1],[0],[0],[1.2540908999981184],['target'],278390,001,2024-10-08_12h53.29.987,visualsearch,2024.1.5,None,2024-10-08 12h53.36.134334 +0530,
28,0,28,0,49.608784600000945,,49.57267259999935,10,49.608784600000945,49.608784600000945,0.02397230000133277,51.582510100000945,[-0.04814814814814815],[0.3768518518518518],[1],[0],[0],[1.9862794000000576],['target'],278390,001,2024-10-08_12h53.29.987,visualsearch,2024.1.5,None,2024-10-08 12h53.36.134334 +0530,
29,0,29,0,51.622767799999565,,51.584604200001195,10,51.622767799999565,51.622767799999565,0.02106840000124066,53.064459299999726,[-0.27685185185185185],[0.35648148148148145],[1],[0],[0],[1.458691199997702],['target'],278390,001,2024-10-08_12h53.29.987,visualsearch,2024.1.5,None,2024-10-08 12h53.36.134334 +0530,
30,0,30,0,53.091144000001805,,53.06698089999918,5,53.091144000001805,53.091144000001805,0.015480000001844019,55.156963199999154,[0.06574074074074074],[0.07777777777777778],[1],[0],[0],[2.073694400001841],['target'],278390,001,2024-10-08_12h53.29.987,visualsearch,2024.1.5,None,2024-10-08 12h53.36.134334 +0530,
31,0,31,0,55.27582149999944,,55.16471160000219,10,55.27582149999944,55.27582149999944,0.0752664999999979,59.09685320000062,[-0.16944444444444445],[0.49444444444444446],[1],[0],[0],[3.857979099997465],['target'],278390,001,2024-10-08_12h53.29.987,visualsearch,2024.1.5,None,2024-10-08 12h53.36.134334 +0530,
32,0,32,0,59.13860009999917,,59.098920700002054,10,59.13860009999917,59.13860009999917,0.02187179999964428,61.09330179999961,[-0.262037037037037],[-0.2537037037037037],[1],[0],[0],[1.9726470000023255],['target'],278390,001,2024-10-08_12h53.29.987,visualsearch,2024.1.5,None,2024-10-08 12h53.36.134334 +0530,
33,0,33,0,61.1391349000005,,61.09561170000234,10,61.1391349000005,61.1391349000005,0.022855800001707394,64.06544220000069,[0.45925925925925926],[0.12777777777777777],[1],[0],[0],[2.947309099999984],['target'],278390,001,2024-10-08_12h53.29.987,visualsearch,2024.1.5,None,2024-10-08 12h53.36.134334 +0530,
34,0,34,0,64.08323340000061,,64.06759149999925,5,64.08323340000061,64.08323340000061,0.009973399999580579,65.3907607000001,[0.3824074074074074],[0.3638888888888889],[1],[0],[0],[1.31326270000136],['target'],278390,001,2024-10-08_12h53.29.987,visualsearch,2024.1.5,None,2024-10-08 12h53.36.134334 +0530,
35,0,35,0,65.42698030000247,,65.39450000000215,10,65.42698030000247,65.42698030000247,0.02040130000023055,67.80525670000134,[0.30925925925925923],[-0.23981481481481481],[1],[0],[0],[2.3907290999995894],['target'],278390,001,2024-10-08_12h53.29.987,visualsearch,2024.1.5,None,2024-10-08 12h53.36.134334 +0530,
36,0,36,0,67.84413029999996,,67.80745790000219,10,67.84413029999996,67.84413029999996,0.020122099998843623,72.01841910000076,[0.024074074074074074],[0.4703703703703704],[1],[0],[0],[4.191028000001097],[],278390,001,2024-10-08_12h53.29.987,visualsearch,2024.1.5,None,2024-10-08 12h53.36.134334 +0530,
37,0,37,0,72.03693100000237,,72.02065980000043,5,72.03693100000237,72.03693100000237,0.01030469999750494,73.20173590000195,[0.19537037037037036],[0.3388888888888889],[1],[0],[0],[1.1709377999977733],['target'],278390,001,2024-10-08_12h53.29.987,visualsearch,2024.1.5,None,2024-10-08 12h53.36.134334 +0530,
38,0,38,0,73.24267089999921,,73.20382160000008,10,73.24267089999921,73.24267089999921,0.026434000003064284,74.6836418999992,[0.4203703703703704],[0.25925925925925924],[1],[0],[0],[1.4535453000025882],['target'],278390,001,2024-10-08_12h53.29.987,visualsearch,2024.1.5,None,2024-10-08 12h53.36.134334 +0530,
39,0,39,0,74.72341170000072,,74.6858343999993,10,74.72341170000072,74.72341170000072,0.020223799998348113,77.74870790000205,[-0.08148148148148149],[-0.2462962962962963],[1],[0],[0],[3.0428401000026497],['target'],278390,001,2024-10-08_12h53.29.987,visualsearch,2024.1.5,None,2024-10-08 12h53.36.134334 +0530,
40,0,40,0,77.76904800000193,,77.75107930000013,5,77.76904800000193,77.76904800000193,0.010888199998589698,79.11467719999928,[0.02962962962962963],[0.4675925925925926],[1],[0],[0],[1.3529860000016924],['target'],278390,001,2024-10-08_12h53.29.987,visualsearch,2024.1.5,None,2024-10-08 12h53.36.134334 +0530,
41,0,41,0,79.14986270000009,,79.1174792999991,10,79.14986270000009,79.14986270000009,0.01976250000006985,83.96114080000189,[-0.046296296296296294],[0.5],[1],[0],[0],[4.824158499999612],['target'],278390,001,2024-10-08_12h53.29.987,visualsearch,2024.1.5,None,2024-10-08 12h53.36.134334 +0530,
42,0,42,0,83.98097390000112,,83.96324169999934,5,83.98097390000112,83.98097390000112,0.01029980000021169,85.26071850000153,[-0.3574074074074074],[0.3212962962962963],[1],[0],[0],[1.2873722000003909],['target'],278390,001,2024-10-08_12h53.29.987,visualsearch,2024.1.5,None,2024-10-08 12h53.36.134334 +0530,
43,0,43,0,85.27812570000242,,85.26292720000129,5,85.27812570000242,85.27812570000242,0.010199599997577025,87.64273750000211,[-0.22592592592592592],[0.04351851851851852],[1],[0],[0],[2.3697752000007313],['target'],278390,001,2024-10-08_12h53.29.987,visualsearch,2024.1.5,None,2024-10-08 12h53.36.134334 +0530,
44,0,44,0,87.66357799999969,,87.64486509999915,5,87.66357799999969,87.66357799999969,0.010571500002697576,89.27451149999979,[-0.3675925925925926],[0.26851851851851855],[1],[0],[0],[1.6192306999982975],['target'],278390,001,2024-10-08_12h53.29.987,visualsearch,2024.1.5,None,2024-10-08 12h53.36.134334 +0530,
45,0,45,0,89.29452450000099,,89.27706949999993,5,89.29452450000099,89.29452450000099,0.010067700000945479,91.1242650000022,[0.3425925925925926],[-0.2074074074074074],[1],[0],[0],[1.8370408000009775],['target'],278390,001,2024-10-08_12h53.29.987,visualsearch,2024.1.5,None,2024-10-08 12h53.36.134334 +0530,
46,0,46,0,91.16475830000127,,91.12864560000162,10,91.16475830000127,91.16475830000127,0.023695200001384364,93.17177979999906,[0.2712962962962963],[0.3509259259259259],[1],[0],[0],[2.020230199999787],['target'],278390,001,2024-10-08_12h53.29.987,visualsearch,2024.1.5,None,2024-10-08 12h53.36.134334 +0530,
47,0,47,0,93.19909290000214,,93.1746744000011,5,93.19909290000214,93.19909290000214,0.016729300001316005,94.8554221000013,[0.41388888888888886],[-0.3277777777777778],[1],[0],[0],[1.664229300000443],['target'],278390,001,2024-10-08_12h53.29.987,visualsearch,2024.1.5,None,2024-10-08 12h53.36.134334 +0530,
48,0,48,0,94.8823364000018,,94.85967630000232,5,94.8823364000018,94.8823364000018,0.01670459999877494,96.42240780000066,[-0.030555555555555555],[0.04722222222222222],[1],[0],[0],[1.5464186999997764],['target'],278390,001,2024-10-08_12h53.29.987,visualsearch,2024.1.5,None,2024-10-08 12h53.36.134334 +0530,
49,0,49,0,96.46036040000035,,96.42529819999982,10,96.46036040000035,96.46036040000035,0.02398919999905047,97.93591000000015,[0.14351851851851852],[0.2675925925925926],[1],[0],[0],[1.486798699999781],['target'],278390,001,2024-10-08_12h53.29.987,visualsearch,2024.1.5,None,2024-10-08 12h53.36.134334 +0530,
50,0,50,0,97.9650232999993,,97.93905110000196,5,97.9650232999993,97.9650232999993,0.01782660000026226,99.3183667000012,[-0.053703703703703705],[0.12407407407407407],[1],[0],[0],[1.361839000001055],['target'],278390,001,2024-10-08_12h53.29.987,visualsearch,2024.1.5,None,2024-10-08 12h53.36.134334 +0530,
51,0,51,0,99.33928000000014,,99.3207422000014,5,99.33928000000014,99.33928000000014,0.011629799999354873,100.58494849999988,[0.325],[-0.2101851851851852],[1],[0],[0],[1.2525270000005548],['target'],278390,001,2024-10-08_12h53.29.987,visualsearch,2024.1.5,None,2024-10-08 12h53.36.134334 +0530,
52,0,52,0,100.63926379999975,,100.58827079999901,10,100.63926379999975,100.63926379999975,0.03534839999701944,102.05037359999915,[0.05277777777777778],[0.4425925925925926],[1],[0],[0],[1.4267147000027762],['target'],278390,001,2024-10-08_12h53.29.987,visualsearch,2024.1.5,None,2024-10-08 12h53.36.134334 +0530,
53,0,53,0,102.07859680000183,,102.05274629999985,5,102.07859680000183,102.07859680000183,0.017169200000353158,104.23256390000097,[-0.28703703703703703],[-0.39444444444444443],[1],[0],[0],[2.1626671999983955],['target'],278390,001,2024-10-08_12h53.29.987,visualsearch,2024.1.5,None,2024-10-08 12h53.36.134334 +0530,
54,0,54,0,104.25733200000104,,104.23658070000238,5,104.25733200000104,104.25733200000104,0.01599759999953676,105.64807180000207,[0.3453703703703704],[0.35],[1],[0],[0],[1.3959762999984378],['target'],278390,001,2024-10-08_12h53.29.987,visualsearch,2024.1.5,None,2024-10-08 12h53.36.134334 +0530,
55,0,55,0,105.68293919999996,,105.65038730000015,10,105.68293919999996,105.68293919999996,0.021577600000455277,107.07973119999951,[-0.10925925925925926],[-0.06481481481481481],[1],[0],[0],[1.4078246999997646],['target'],278390,001,2024-10-08_12h53.29.987,visualsearch,2024.1.5,None,2024-10-08 12h53.36.134334 +0530,
56,0,56,0,107.12100970000029,,107.08221799999956,10,107.12100970000029,107.12100970000029,0.02433460000247578,111.34382960000221,[0.018518518518518517],[-0.07222222222222222],[1],[0],[0],[4.237389199999598],[],278390,001,2024-10-08_12h53.29.987,visualsearch,2024.1.5,None,2024-10-08 12h53.36.134334 +0530,
57,0,57,0,111.37592220000079,,111.34656420000101,5,111.37592220000079,111.37592220000079,0.01807389999885345,112.74351300000126,[-0.48333333333333334],[-0.025925925925925925],[1],[0],[0],[1.379170799998974],['target'],278390,001,2024-10-08_12h53.29.987,visualsearch,2024.1.5,None,2024-10-08 12h53.36.134334 +0530,
58,0,58,0,112.77916430000187,,112.74638570000025,10,112.77916430000187,112.77916430000187,0.022081699997215765,116.60704059999989,[-0.1527777777777778],[0.49722222222222223],[1],[0],[0],[3.838928000001033],[],278390,001,2024-10-08_12h53.29.987,visualsearch,2024.1.5,None,2024-10-08 12h53.36.134334 +0530,
59,0,59,0,116.65646100000231,,116.60927570000058,10,116.65646100000231,116.65646100000231,0.02677390000098967,119.96999979999964,[0.11018518518518519],[0.1925925925925926],[1],[0],[0],[3.333831200001441],[],278390,001,2024-10-08_12h53.29.987,visualsearch,2024.1.5,None,2024-10-08 12h53.36.134334 +0530,
60,0,60,0,120.01260860000184,,119.97253750000164,10,120.01260860000184,120.01260860000184,0.020184699998935685,121.65366809999978,[-0.22314814814814815],[0.362962962962963],[1],[0],[0],[1.6611572000001615],['target'],278390,001,2024-10-08_12h53.29.987,visualsearch,2024.1.5,None,2024-10-08 12h53.36.134334 +0530,
61,0,61,0,121.67403589999958,,121.65587339999911,5,121.67403589999958,121.67403589999958,0.01158930000019609,123.15427170000112,[0.3055555555555556],[-0.3101851851851852],[1],[0],[0],[1.4867056000002776],['target'],278390,001,2024-10-08_12h53.29.987,visualsearch,2024.1.5,None,2024-10-08 12h53.36.134334 +0530,
62,0,62,0,123.17487769999934,,123.1584913000006,5,123.17487769999934,123.17487769999934,0.01147099999798229,125.01894710000124,[0.2796296296296296],[0.5],[1],[0],[0],[1.849506200000178],['target'],278390,001,2024-10-08_12h53.29.987,visualsearch,2024.1.5,None,2024-10-08 12h53.36.134334 +0530,
63,0,63,0,125.03792489999978,,125.02107969999997,5,125.03792489999978,125.03792489999978,0.010158099998079706,127.73403640000106,[0.12129629629629629],[0.42592592592592593],[1],[0],[0],[2.702887699997518],['target'],278390,001,2024-10-08_12h53.29.987,visualsearch,2024.1.5,None,2024-10-08 12h53.36.134334 +0530,
64,0,64,0,127.77046540000083,,127.73635139999897,10,127.77046540000083,127.77046540000083,0.02315440000165836,130.53254000000015,[-0.3287037037037037],[-0.3990740740740741],[1],[0],[0],[2.7729647000014666],['target'],278390,001,2024-10-08_12h53.29.987,visualsearch,2024.1.5,None,2024-10-08 12h53.36.134334 +0530,
65,0,65,0,130.56980490000205,,130.53459460000158,10,130.56980490000205,130.56980490000205,0.01943110000138404,132.03029810000226,[0.2361111111111111],[-0.13333333333333333],[1],[0],[0],[1.4763639000011608],['target'],278390,001,2024-10-08_12h53.29.987,visualsearch,2024.1.5,None,2024-10-08 12h53.36.134334 +0530,
66,0,66,0,132.07491660000233,,132.03250180000032,10,132.07491660000233,132.07491660000233,0.01908489999914309,137.27415870000186,[0.17962962962962964],[-0.3333333333333333],[1],[0],[0],[5.222615999999107],[],278390,001,2024-10-08_12h53.29.987,visualsearch,2024.1.5,None,2024-10-08 12h53.36.134334 +0530,
67,0,67,0,137.32128620000003,,137.27790599999935,10,137.32128620000003,137.32128620000003,0.02015409999876283,138.58077760000015,[0.06388888888888888],[-0.11018518518518519],[1],[0],[0],[1.2830217000009725],['target'],278390,001,2024-10-08_12h53.29.987,visualsearch,2024.1.5,None,2024-10-08 12h53.36.134334 +0530,
68,0,68,0,138.63837590000185,,138.58394419999968,10,138.63837590000185,138.63837590000185,0.02183810000133235,144.29443630000242,[-0.4527777777777778],[-0.044444444444444446],[1],[0],[0],[5.689042199999676],['target'],278390,001,2024-10-08_12h53.29.987,visualsearch,2024.1.5,None,2024-10-08 12h53.36.134334 +0530,
69,0,69,0,144.34655380000186,,144.29670420000184,10,144.34655380000186,144.34655380000186,0.019987899999250658,149.04246860000057,[-0.13333333333333333],[-0.3638888888888889],[1],[0],[0],[4.725725899999816],['target'],278390,001,2024-10-08_12h53.29.987,visualsearch,2024.1.5,None,2024-10-08 12h53.36.134334 +0530,
70,0,70,0,149.1002898000006,,149.0456348000007,10,149.1002898000006,149.1002898000006,0.02111270000023069,152.06198120000045,[-0.09537037037037037],[0.42407407407407405],[1],[0],[0],[2.9953604000002088],['target'],278390,001,2024-10-08_12h53.29.987,visualsearch,2024.1.5,None,2024-10-08 12h53.36.134334 +0530,
71,0,71,0,152.08142969999972,,152.06430810000165,5,152.08142969999972,152.08142969999972,0.010664400000678143,153.134790600001,[-0.017592592592592594],[0.40370370370370373],[1],[0],[0],[1.0599729999994452],['target'],278390,001,2024-10-08_12h53.29.987,visualsearch,2024.1.5,None,2024-10-08 12h53.36.134334 +0530,
72,0,72,0,153.15601779999997,,153.1371188000012,5,153.15601779999997,153.15601779999997,0.01083210000069812,155.13274540000202,[-0.17962962962962964],[-0.24722222222222223],[1],[0],[0],[1.9849393000004056],['target'],278390,001,2024-10-08_12h53.29.987,visualsearch,2024.1.5,None,2024-10-08 12h53.36.134334 +0530,
73,0,73,0,155.15208189999976,,155.1353381000008,5,155.15208189999976,155.15208189999976,0.01039640000090003,156.38222189999942,[-0.24259259259259258],[0.31296296296296294],[1],[0],[0],[1.2366552999992564],['target'],278390,001,2024-10-08_12h53.29.987,visualsearch,2024.1.5,None,2024-10-08 12h53.36.134334 +0530,
74,0,74,0,156.40174689999913,,156.38454009999987,5,156.40174689999913,156.40174689999913,0.010461300000315532,157.98088610000195,[0.44814814814814813],[-0.15],[1],[0],[0],[1.5860042999993311],['target'],278390,001,2024-10-08_12h53.29.987,visualsearch,2024.1.5,None,2024-10-08 12h53.36.134334 +0530,
75,0,75,0,158.00198330000057,,157.98458360000222,5,158.00198330000057,158.00198330000057,0.012362600002234103,159.76378990000012,[-0.10555555555555556],[-0.27870370370370373],[1],[0],[0],[1.7670575000011013],['target'],278390,001,2024-10-08_12h53.29.987,visualsearch,2024.1.5,None,2024-10-08 12h53.36.134334 +0530,
76,0,76,0,159.81249469999966,,159.76801640000122,10,159.81249469999966,159.81249469999966,0.02733300000181771,161.62845949999974,[-0.03796296296296296],[0.45555555555555555],[1],[0],[0],[1.8337576000012632],['target'],278390,001,2024-10-08_12h53.29.987,visualsearch,2024.1.5,None,2024-10-08 12h53.36.134334 +0530,
77,0,77,0,161.64802740000232,,161.63077619999967,5,161.64802740000232,161.64802740000232,0.010310099998605438,162.96140970000124,[-0.2657407407407407],[-0.005555555555555556],[1],[0],[0],[1.3203237999987323],['target'],278390,001,2024-10-08_12h53.29.987,visualsearch,2024.1.5,None,2024-10-08 12h53.36.134334 +0530,
78,0,78,0,162.98144840000168,,162.96399810000003,5,162.98144840000168,162.98144840000168,0.0104907999993884,164.5771253999992,[-0.09537037037037037],[0.07222222222222222],[1],[0],[0],[1.6028112000021792],['target'],278390,001,2024-10-08_12h53.29.987,visualsearch,2024.1.5,None,2024-10-08 12h53.36.134334 +0530,
79,0,79,0,164.6127172000015,,164.57967800000188,10,164.6127172000015,164.6127172000015,0.020446099999389844,165.84375240000008,[0.29814814814814816],[0.08981481481481482],[1],[0],[0],[1.243564199998218],['target'],278390,001,2024-10-08_12h53.29.987,visualsearch,2024.1.5,None,2024-10-08 12h53.36.134334 +0530,
80,0,80,0,165.86236930000086,,165.84598410000035,5,165.86236930000086,165.86236930000086,0.009865899999567773,166.7592074000022,[0.29814814814814816],[0.03796296296296296],[1],[0],[0],[0.9035264999984065],['target'],278390,001,2024-10-08_12h53.29.987,visualsearch,2024.1.5,None,2024-10-08 12h53.36.134334 +0530,
81,0,81,0,166.7950024999991,,166.7613605000006,10,166.7950024999991,166.7950024999991,0.020839699998759897,168.07438380000167,[0.3435185185185185],[0.35648148148148145],[1],[0],[0],[1.2923354000013205],['target'],278390,001,2024-10-08_12h53.29.987,visualsearch,2024.1.5,None,2024-10-08 12h53.36.134334 +0530,
82,0,82,0,168.09401870000147,,168.0765859000021,5,168.09401870000147,168.09401870000147,0.010538000002270564,169.5572482000025,[0.4703703703703704],[-0.18333333333333332],[1],[0],[0],[1.4702410000027157],['target'],278390,001,2024-10-08_12h53.29.987,visualsearch,2024.1.5,None,2024-10-08 12h53.36.134334 +0530,
83,0,83,0,169.59211829999913,,169.55992120000155,10,169.59211829999913,169.59211829999913,0.02007899999807705,170.922494800001,[0.24351851851851852],[0.3138888888888889],[1],[0],[0],[1.3428048999994644],['target'],278390,001,2024-10-08_12h53.29.987,visualsearch,2024.1.5,None,2024-10-08 12h53.36.134334 +0530,
84,0,84,0,170.9617567000023,,170.92466100000092,10,170.9617567000023,170.9617567000023,0.02115629999752855,174.0538271000005,[0.28425925925925927],[-0.3287037037037037],[1],[0],[0],[3.1080862999988312],['target'],278390,001,2024-10-08_12h53.29.987,visualsearch,2024.1.5,None,2024-10-08 12h53.36.134334 +0530,
85,0,85,0,174.0725018000012,,174.05616350000128,5,174.0725018000012,174.0725018000012,0.010148199999093777,175.88682110000082,[0.44814814814814813],[0.15648148148148147],[1],[0],[0],[1.8207567999997991],['target'],278390,001,2024-10-08_12h53.29.987,visualsearch,2024.1.5,None,2024-10-08 12h53.36.134334 +0530,
86,0,86,0,175.9061881000016,,175.88941899999918,5,175.9061881000016,175.9061881000016,0.010249300001305528,176.8528750000005,[0.3888888888888889],[0.03981481481481482],[1],[0],[0],[0.9534347000007983],['target'],278390,001,2024-10-08_12h53.29.987,visualsearch,2024.1.5,None,2024-10-08 12h53.36.134334 +0530,
87,0,87,0,176.88878889999978,,176.85498519999965,10,176.88878889999978,176.88878889999978,0.020064100001036422,177.36870009999984,[0.3888888888888889],[0.03981481481481482],[1],[0],[0],[0.49358569999822066],['target'],278390,001,2024-10-08_12h53.29.987,visualsearch,2024.1.5,None,2024-10-08 12h53.36.134334 +0530,
88,0,88,0,177.4063496000017,,177.3711699000014,10,177.4063496000017,177.4063496000017,0.019715700000233483,179.56753350000145,[0.3314814814814815],[0.5],[1],[0],[0],[2.17663530000209],['target'],278390,001,2024-10-08_12h53.29.987,visualsearch,2024.1.5,None,2024-10-08 12h53.36.134334 +0530,
89,0,89,0,179.60991840000133,,179.56973090000247,10,179.60991840000133,179.60991840000133,0.02017619999969611,181.59942729999966,[0.13425925925925927],[-0.01574074074074074],[1],[0],[0],[2.0094978000015544],['target'],278390,001,2024-10-08_12h53.29.987,visualsearch,2024.1.5,None,2024-10-08 12h53.36.134334 +0530,
90,0,90,0,181.64943080000012,,181.6016548000007,10,181.64943080000012,181.64943080000012,0.021965399999317015,185.3033546000006,[0.22685185185185186],[-0.34629629629629627],[1],[0],[0],[3.679771900002379],['target'],278390,001,2024-10-08_12h53.29.987,visualsearch,2024.1.5,None,2024-10-08 12h53.36.134334 +0530,
91,0,91,0,185.3262321000002,,185.30641300000207,5,185.3262321000002,185.3262321000002,0.011767899999540532,186.76364280000053,[0.3972222222222222],[0.16666666666666666],[1],[0],[0],[1.4456907999992836],['target'],278390,001,2024-10-08_12h53.29.987,visualsearch,2024.1.5,None,2024-10-08 12h53.36.134334 +0530,
92,0,92,0,186.79924630000096,,186.7657368,10,186.79924630000096,186.79924630000096,0.021357800000259886,188.97779079999964,[-0.32037037037037036],[0.4537037037037037],[1],[0],[0],[2.190795700000308],['target'],278390,001,2024-10-08_12h53.29.987,visualsearch,2024.1.5,None,2024-10-08 12h53.36.134334 +0530,
93,0,93,0,189.01704479999898,,188.97997250000117,10,189.01704479999898,189.01704479999898,0.019973399997979868,192.02617680000185,[0.12777777777777777],[-0.34629629629629627],[1],[0],[0],[3.026207399998384],['target'],278390,001,2024-10-08_12h53.29.987,visualsearch,2024.1.5,None,2024-10-08 12h53.36.134334 +0530,
94,0,94,0,192.04386370000066,,192.02878559999954,5,192.04386370000066,192.04386370000066,0.00971420000132639,193.24211139999898,[0.001851851851851852],[-0.14444444444444443],[1],[0],[0],[1.2037639000009221],['target'],278390,001,2024-10-08_12h53.29.987,visualsearch,2024.1.5,None,2024-10-08 12h53.36.134334 +0530,
95,0,95,0,193.2631313999991,,193.2444976000006,5,193.2631313999991,193.2631313999991,0.010396399997262051,194.82398029999968,[-0.2601851851851852],[0.15092592592592594],[1],[0],[0],[1.5692827999992005],['target'],278390,001,2024-10-08_12h53.29.987,visualsearch,2024.1.5,None,2024-10-08 12h53.36.134334 +0530,
96,0,96,0,194.8640723999997,,194.8264237000003,10,194.8640723999997,194.8640723999997,0.02417020000211778,196.73968679999962,[0.17037037037037037],[-0.2101851851851852],[1],[0],[0],[1.8892651999994996],['target'],278390,001,2024-10-08_12h53.29.987,visualsearch,2024.1.5,None,2024-10-08 12h53.36.134334 +0530,
97,0,97,0,196.761568599999,,196.7434386999994,5,196.761568599999,196.761568599999,0.012531099997431738,198.50595330000215,[-0.44537037037037036],[0.37962962962962965],[1],[0],[0],[1.75048660000175],['target'],278390,001,2024-10-08_12h53.29.987,visualsearch,2024.1.5,None,2024-10-08 12h53.36.134334 +0530,
98,0,98,0,198.52824659999897,,198.50901330000124,5,198.52824659999897,198.52824659999897,0.010276800003339304,199.73749930000122,[-0.32407407407407407],[0.025925925925925925],[1],[0],[0],[1.2184198000031756],['target'],278390,001,2024-10-08_12h53.29.987,visualsearch,2024.1.5,None,2024-10-08 12h53.36.134334 +0530,
99,0,99,0,199.75802720000138,,199.7399824000022,5,199.75802720000138,199.75802720000138,0.010037600000941893,201.3703561000002,[0.13518518518518519],[-0.3416666666666667],[1],[0],[0],[1.6204321999975946],['target'],278390,001,2024-10-08_12h53.29.987,visualsearch,2024.1.5,None,2024-10-08 12h53.36.134334 +0530,
100,0,100,0,201.39122630000202,,201.37354720000076,5,201.39122630000202,201.39122630000202,0.010363199999119388,202.71941349999906,[0.3],[0.17222222222222222],[1],[0],[0],[1.335845400000835],['target'],278390,001,2024-10-08_12h53.29.987,visualsearch,2024.1.5,None,2024-10-08 12h53.36.134334 +0530,
101,0,101,0,202.75336030000108,,202.72234500000195,10,202.75336030000108,202.75336030000108,0.0197985000013432,203.83470619999935,[0.487962962962963],[0.2388888888888889],[1],[0],[0],[1.0929391000026953],['target'],278390,001,2024-10-08_12h53.29.987,visualsearch,2024.1.5,None,2024-10-08 12h53.36.134334 +0530,
102,0,102,0,203.87631800000236,,203.8370876000008,10,203.87631800000236,203.87631800000236,0.020433300000149757,205.0336638000008,[0.28055555555555556],[0.09907407407407408],[1],[0],[0],[1.1765306999986933],['target'],278390,001,2024-10-08_12h53.29.987,visualsearch,2024.1.5,None,2024-10-08 12h53.36.134334 +0530,
103,0,103,0,205.0519729000007,,205.03588880000098,5,205.0519729000007,205.0519729000007,0.0102030999987619,206.30029579999973,[0.06851851851851852],[0.22407407407407406],[1],[0],[0],[1.254395800002385],['target'],278390,001,2024-10-08_12h53.29.987,visualsearch,2024.1.5,None,2024-10-08 12h53.36.134334 +0530,
104,0,104,0,206.33561660000123,,206.3024179999993,10,206.33561660000123,206.33561660000123,0.019652800001495052,207.53281889999926,[0.362962962962963],[0.017592592592592594],[1],[0],[0],[1.2107768999994732],['target'],278390,001,2024-10-08_12h53.29.987,visualsearch,2024.1.5,None,2024-10-08 12h53.36.134334 +0530,
105,0,105,0,207.57375300000058,,207.5357163000008,10,207.57375300000058,207.57375300000058,0.021144100002857158,210.46357680000074,[-0.01574074074074074],[-0.35833333333333334],[1],[0],[0],[2.907123599998158],['target'],278390,001,2024-10-08_12h53.29.987,visualsearch,2024.1.5,None,2024-10-08 12h53.36.134334 +0530,
106,0,106,0,210.48396280000088,,210.46577380000235,5,210.48396280000088,210.48396280000088,0.010960999999952037,211.71366340000168,[-0.24444444444444444],[0.06481481481481481],[1],[0],[0],[1.237083199997869],['target'],278390,001,2024-10-08_12h53.29.987,visualsearch,2024.1.5,None,2024-10-08 12h53.36.134334 +0530,
107,0,107,0,211.75113659999988,,211.71662470000228,10,211.75113659999988,211.75113659999988,0.022259800000028918,213.6622141000007,[0.08333333333333333],[0.48518518518518516],[1],[0],[0],[1.9235297000013816],['target'],278390,001,2024-10-08_12h53.29.987,visualsearch,2024.1.5,None,2024-10-08 12h53.36.134334 +0530,
108,0,108,0,213.6996024,,213.66438460000063,10,213.6996024,213.6996024,0.019991500001196982,219.39159350000045,[0.007407407407407408],[-0.1527777777777778],[1],[0],[0],[5.707227799997781],[],278390,001,2024-10-08_12h53.29.987,visualsearch,2024.1.5,None,2024-10-08 12h53.36.134334 +0530,
109,0,109,0,219.4092520000013,,219.39373390000037,5,219.4092520000013,219.4092520000013,0.01001890000043204,220.4919461999998,[-0.03148148148148148],[0.44166666666666665],[1],[0],[0],[1.0883361999985937],['target'],278390,001,2024-10-08_12h53.29.987,visualsearch,2024.1.5,None,2024-10-08 12h53.36.134334 +0530,
110,0,110,0,220.5122663000002,,220.49412250000023,5,220.5122663000002,220.5122663000002,0.011091399999713758,221.88997360000212,[0.3472222222222222],[0.30185185185185187],[1],[0],[0],[1.3849660999985645],['target'],278390,001,2024-10-08_12h53.29.987,visualsearch,2024.1.5,None,2024-10-08 12h53.36.134334 +0530,
111,0,111,0,221.91536199999973,,221.89248729999963,5,221.91536199999973,221.91536199999973,0.015534300000581425,223.15590220000013,[0.30277777777777776],[0.13796296296296295],[1],[0],[0],[1.2481086000007053],['target'],278390,001,2024-10-08_12h53.29.987,visualsearch,2024.1.5,None,2024-10-08 12h53.36.134334 +0530,
112,0,112,0,223.19002580000233,,223.1580236000009,10,223.19002580000233,223.19002580000233,0.019754400000238093,225.43810780000058,[-0.225],[-0.16018518518518518],[1],[0],[0],[2.2604687999992166],['target'],278390,001,2024-10-08_12h53.29.987,visualsearch,2024.1.5,None,2024-10-08 12h53.36.134334 +0530,
113,0,113,0,225.478809799999,,225.44025200000033,10,225.478809799999,225.478809799999,0.022764700002881,228.69787609999912,[0.06296296296296296],[0.38425925925925924],[1],[0],[0],[3.234921100000065],['target'],278390,001,2024-10-08_12h53.29.987,visualsearch,2024.1.5,None,2024-10-08 12h53.36.134334 +0530,
114,0,114,0,228.71570359999896,,228.69998080000005,5,228.71570359999896,228.71570359999896,0.010135900000022957,229.93601639999906,[0.2722222222222222],[0.09537037037037037],[1],[0],[0],[1.226075700000365],['target'],278390,001,2024-10-08_12h53.29.987,visualsearch,2024.1.5,None,2024-10-08 12h53.36.134334 +0530,
115,0,115,0,229.96967810000206,,229.93822880000153,10,229.96967810000206,229.96967810000206,0.01986600000236649,232.0028999999995,[-0.39166666666666666],[-0.014814814814814815],[1],[0],[0],[2.0447740000017802],['target'],278390,001,2024-10-08_12h53.29.987,visualsearch,2024.1.5,None,2024-10-08 12h53.36.134334 +0530,
116,0,116,0,232.0417344000016,,232.00582000000213,10,232.0417344000016,232.0417344000016,0.020832800000789575,234.36524500000087,[0.3509259259259259],[0.3787037037037037],[1],[0],[0],[2.3389045000003534],['target'],278390,001,2024-10-08_12h53.29.987,visualsearch,2024.1.5,None,2024-10-08 12h53.36.134334 +0530,
117,0,117,0,234.384455899999,,234.3675414999998,5,234.384455899999,234.384455899999,0.010374900000897469,235.48156150000068,[0.5231481481481481],[-0.08796296296296297],[1],[0],[0],[1.1038477000001876],['target'],278390,001,2024-10-08_12h53.29.987,visualsearch,2024.1.5,None,2024-10-08 12h53.36.134334 +0530,
118,0,118,0,235.50174340000012,,235.48370480000085,5,235.50174340000012,235.50174340000012,0.010283999999955995,237.48032969999986,[0.09814814814814815],[-0.07592592592592592],[1],[0],[0],[1.9863529000031122],['target'],278390,001,2024-10-08_12h53.29.987,visualsearch,2024.1.5,None,2024-10-08 12h53.36.134334 +0530,
119,0,119,0,237.5245001000003,,237.483589200001,10,237.5245001000003,237.5245001000003,0.025887600000714883,238.82902900000045,[0.38425925925925924],[-0.12037037037037036],[1],[0],[0],[1.3199347999980091],['target'],278390,001,2024-10-08_12h53.29.987,visualsearch,2024.1.5,None,2024-10-08 12h53.36.134334 +0530,
120,0,120,0,238.86830220000047,,238.83118040000045,10,238.86830220000047,238.86830220000047,0.02198080000016489,240.1283336000015,[0.22407407407407406],[-0.14166666666666666],[1],[0],[0],[1.2753655000014987],['target'],278390,001,2024-10-08_12h53.29.987,visualsearch,2024.1.5,None,2024-10-08 12h53.36.134334 +0530,
121,0,121,0,240.1717415000021,,240.1305680000005,10,240.1717415000021,240.1717415000021,0.019734800000151154,241.57231020000108,[0.18333333333333332],[0.10462962962962963],[1],[0],[0],[1.422056799998245],['target'],278390,001,2024-10-08_12h53.29.987,visualsearch,2024.1.5,None,2024-10-08 12h53.36.134334 +0530,
122,0,122,0,241.5925083000002,,241.57447390000016,5,241.5925083000002,241.5925083000002,0.010468299999047304,242.6948846000014,[-0.1388888888888889],[0.24814814814814815],[1],[0],[0],[1.109916900000826],['target'],278390,001,2024-10-08_12h53.29.987,visualsearch,2024.1.5,None,2024-10-08 12h53.36.134334 +0530,
123,0,123,0,242.73556400000234,,242.69803780000075,10,242.73556400000234,242.73556400000234,0.023824299998523202,243.87587310000163,[-0.3592592592592593],[0.42685185185185187],[1],[0],[0],[1.1544290999991063],['target'],278390,001,2024-10-08_12h53.29.987,visualsearch,2024.1.5,None,2024-10-08 12h53.36.134334 +0530,
124,0,124,0,243.89587630000096,,243.8780579000013,5,243.89587630000096,243.89587630000096,0.010172099999181228,245.69223469999997,[-0.23796296296296296],[-0.19074074074074074],[1],[0],[0],[1.804180399998586],['target'],278390,001,2024-10-08_12h53.29.987,visualsearch,2024.1.5,None,2024-10-08 12h53.36.134334 +0530,
125,0,125,0,245.72903399999996,,245.6943252000019,10,245.72903399999996,245.72903399999996,0.02031669999996666,248.422964100002,[0.24166666666666667],[-0.10277777777777777],[1],[0],[0],[2.7084920999986934],['target'],278390,001,2024-10-08_12h53.29.987,visualsearch,2024.1.5,None,2024-10-08 12h53.36.134334 +0530,
126,0,126,0,248.46224590000202,,248.42513400000098,10,248.46224590000202,248.46224590000202,0.020118799999181647,250.7548209000015,[0.18518518518518517],[0.4111111111111111],[1],[0],[0],[2.3097596999978123],['target'],278390,001,2024-10-08_12h53.29.987,visualsearch,2024.1.5,None,2024-10-08 12h53.36.134334 +0530,
127,0,127,0,250.79851899999994,,250.75702250000177,10,250.79851899999994,250.79851899999994,0.019606500001827953,253.41958870000235,[0.022222222222222223],[-0.3787037037037037],[1],[0],[0],[2.6431607000013173],['target'],278390,001,2024-10-08_12h53.29.987,visualsearch,2024.1.5,None,2024-10-08 12h53.36.134334 +0530,
128,0,128,0,253.4387612999999,,253.42183220000152,5,253.4387612999999,253.4387612999999,0.010417199999210425,257.1682069000017,[-0.11851851851851852],[0.5],[1],[0],[0],[3.73613430000114],['target'],278390,001,2024-10-08_12h53.29.987,visualsearch,2024.1.5,None,2024-10-08 12h53.36.134334 +0530,
129,0,129,0,257.18647070000225,,257.17060459999993,5,257.18647070000225,257.18647070000225,0.010197099996730685,258.3508447999993,[0.28425925925925927],[0.17222222222222222],[1],[0],[0],[1.170133800002077],['target'],278390,001,2024-10-08_12h53.29.987,visualsearch,2024.1.5,None,2024-10-08 12h53.36.134334 +0530,
130,0,130,0,258.38488159999906,,258.3530114999994,10,258.38488159999906,258.38488159999906,0.01976970000032452,261.1822226000004,[-0.5231481481481481],[-0.09259259259259259],[1],[0],[0],[2.809592600002361],[],278390,001,2024-10-08_12h53.29.987,visualsearch,2024.1.5,None,2024-10-08 12h53.36.134334 +0530,
131,0,131,0,261.20312919999924,,261.18439950000175,5,261.20312919999924,261.20312919999924,0.010725200001616031,262.58071220000056,[0.42962962962962964],[0.08981481481481482],[1],[0],[0],[1.3857930999984092],['target'],278390,001,2024-10-08_12h53.29.987,visualsearch,2024.1.5,None,2024-10-08 12h53.36.134334 +0530,
132,0,132,0,262.6036969000015,,262.5846433000006,5,262.6036969000015,262.6036969000015,0.010941799999272916,264.879608700001,[-0.44722222222222224],[-0.1787037037037037],[1],[0],[0],[2.284538399999292],['target'],278390,001,2024-10-08_12h53.29.987,visualsearch,2024.1.5,None,2024-10-08 12h53.36.134334 +0530,
133,0,133,0,264.89769530000194,,264.881764400001,5,264.89769530000194,264.89769530000194,0.009952899999916553,266.51207169999907,[0.39537037037037037],[-0.33240740740740743],[1],[0],[0],[1.6205362000000605],['target'],278390,001,2024-10-08_12h53.29.987,visualsearch,2024.1.5,None,2024-10-08 12h53.36.134334 +0530,
134,0,134,0,266.5510400999992,,266.51420169999983,10,266.5510400999992,266.5510400999992,0.02374689999851398,268.0280378999996,[-0.09814814814814815],[0.001851851851851852],[1],[0],[0],[1.4895665000003646],['target'],278390,001,2024-10-08_12h53.29.987,visualsearch,2024.1.5,None,2024-10-08 12h53.36.134334 +0530,
135,0,135,0,268.0677219999998,,268.03099900000234,10,268.0677219999998,268.0677219999998,0.020520000001852168,269.6263835999998,[-0.4787037037037037],[0.12129629629629629],[1],[0],[0],[1.575054500000988],['target'],278390,001,2024-10-08_12h53.29.987,visualsearch,2024.1.5,None,2024-10-08 12h53.36.134334 +0530,
136,0,136,0,269.64388770000005,,269.62850510000135,5,269.64388770000005,269.64388770000005,0.009958200000255601,271.4943568000017,[0.023148148148148147],[-0.2759259259259259],[1],[0],[0],[1.8556975000028615],['target'],278390,001,2024-10-08_12h53.29.987,visualsearch,2024.1.5,None,2024-10-08 12h53.36.134334 +0530,
137,0,137,0,271.52807600000233,,271.49713340000017,10,271.52807600000233,271.52807600000233,0.019291799999336945,273.10749120000037,[0.4898148148148148],[0.22037037037037038],[1],[0],[0],[1.5912755999997898],['target'],278390,001,2024-10-08_12h53.29.987,visualsearch,2024.1.5,None,2024-10-08 12h53.36.134334 +0530,
138,0,138,0,273.1503264999992,,273.1096757000014,10,273.1503264999992,273.1503264999992,0.023269900000741472,278.4055178000017,[0.07685185185185185],[0.5],[1],[0],[0],[5.272444199999882],['target'],278390,001,2024-10-08_12h53.29.987,visualsearch,2024.1.5,None,2024-10-08 12h53.36.134334 +0530,
139,0,139,0,278.42455150000023,,278.4085355000025,5,278.42455150000023,278.42455150000023,0.010603099999570986,279.97026650000043,[0.3472222222222222],[-0.19166666666666668],[1],[0],[0],[1.5514968000024965],[],278390,001,2024-10-08_12h53.29.987,visualsearch,2024.1.5,None,2024-10-08 12h53.36.134334 +0530,
140,0,140,0,280.00619089999964,,279.97255470000164,10,280.00619089999964,280.00619089999964,0.020015999998577172,282.21804070000144,[-0.15092592592592594],[-0.2611111111111111],[1],[0],[0],[2.2256222999967576],['target'],278390,001,2024-10-08_12h53.29.987,visualsearch,2024.1.5,None,2024-10-08 12h53.36.134334 +0530,
141,0,141,0,282.2370206000014,,282.2202968999991,5,282.2370206000014,282.2370206000014,0.010387099999206839,283.6515939000019,[0.13425925925925927],[0.4638888888888889],[1],[0],[0],[1.4209021000024222],['target'],278390,001,2024-10-08_12h53.29.987,visualsearch,2024.1.5,None,2024-10-08 12h53.36.134334 +0530,
142,0,142,0,283.6731949999994,,283.6556567000007,5,283.6731949999994,283.6731949999994,0.011012400002073264,284.8836956000014,[0.43148148148148147],[0.18981481481481483],[1],[0],[0],[1.2175291999992623],['target'],278390,001,2024-10-08_12h53.29.987,visualsearch,2024.1.5,None,2024-10-08 12h53.36.134334 +0530,
143,0,143,0,284.9030657000003,,284.8862612000012,5,284.9030657000003,284.9030657000003,0.009943000000930624,286.3991610000012,[0.45555555555555555],[0.42314814814814816],[1],[0],[0],[1.5031329999983427],['target'],278390,001,2024-10-08_12h53.29.987,visualsearch,2024.1.5,None,2024-10-08 12h53.36.134334 +0530,
144,0,144,0,286.4340986999996,,286.40159549999953,10,286.4340986999996,286.4340986999996,0.020015899997815723,288.79752830000143,[0.30925925925925923],[0.06018518518518518],[1],[0],[0],[2.3760624999995343],['target'],278390,001,2024-10-08_12h53.29.987,visualsearch,2024.1.5,None,2024-10-08 12h53.36.134334 +0530,
145,0,145,0,288.8182517000023,,288.7998441999989,5,288.8182517000023,288.8182517000023,0.010165600000618724,290.19705109999995,[-0.09444444444444444],[0.4935185185185185],[1],[0],[0],[1.387290300001041],['target'],278390,001,2024-10-08_12h53.29.987,visualsearch,2024.1.5,None,2024-10-08 12h53.36.134334 +0530,
146,0,146,0,290.236831000002,,290.19918360000156,10,290.236831000002,290.236831000002,0.023766300000716,294.61046120000174,[-0.011111111111111112],[0.32592592592592595],[1],[0],[0],[4.387697099999059],[],278390,001,2024-10-08_12h53.29.987,visualsearch,2024.1.5,None,2024-10-08 12h53.36.134334 +0530,
147,0,147,0,294.6289794000004,,294.61262940000233,5,294.6289794000004,294.6289794000004,0.010423499999888008,296.226286000001,[-0.12222222222222222],[0.45],[1],[0],[0],[1.6034232999991218],['target'],278390,001,2024-10-08_12h53.29.987,visualsearch,2024.1.5,None,2024-10-08 12h53.36.134334 +0530,
148,0,148,0,296.24702239999897,,296.22854780000125,5,296.24702239999897,296.24702239999897,0.009985799999412848,297.67547059999924,[0.4685185185185185],[0.18888888888888888],[1],[0],[0],[1.4371353999995335],['target'],278390,001,2024-10-08_12h53.29.987,visualsearch,2024.1.5,None,2024-10-08 12h53.36.134334 +0530,
149,0,149,0,297.7088309999999,,297.67755190000025,10,297.7088309999999,297.7088309999999,0.019972100002632942,299.00751519999903,[0.06111111111111111],[0.4759259259259259],[1],[0],[0],[1.31013030000031],['target'],278390,001,2024-10-08_12h53.29.987,visualsearch,2024.1.5,None,2024-10-08 12h53.36.134334 +0530,
150,0,150,0,299.0490678999995,,299.00974770000175,10,299.0490678999995,299.0490678999995,0.020005100002890686,300.1231652999995,[0.1712962962962963],[0.16944444444444445],[1],[0],[0],[1.093606299997191],['target'],278390,001,2024-10-08_12h53.29.987,visualsearch,2024.1.5,None,2024-10-08 12h53.36.134334 +0530,
151,0,151,0,300.16582130000097,,300.1253432000012,10,300.16582130000097,300.16582130000097,0.0197403000020131,303.14694090000194,[-0.29444444444444445],[-0.20277777777777778],[1],[0],[0],[3.001861099997768],['target'],278390,001,2024-10-08_12h53.29.987,visualsearch,2024.1.5,None,2024-10-08 12h53.36.134334 +0530,
152,0,152,0,303.1643651000013,,303.1493269999992,5,303.1643651000013,303.1643651000013,0.010240600000543054,305.3043534999997,[-0.49444444444444446],[-0.26944444444444443],[1],[0],[0],[2.144987499999843],['target'],278390,001,2024-10-08_12h53.29.987,visualsearch,2024.1.5,None,2024-10-08 12h53.36.134334 +0530,
153,0,153,0,305.32466550000026,,305.3065009999991,5,305.32466550000026,305.32466550000026,0.010013700000854442,306.88628339999923,[0.17592592592592593],[-0.30092592592592593],[1],[0],[0],[1.5699237000007997],['target'],278390,001,2024-10-08_12h53.29.987,visualsearch,2024.1.5,None,2024-10-08 12h53.36.134334 +0530,
154,0,154,0,306.9202226000016,,306.8884003000021,10,306.9202226000016,306.9202226000016,0.019567999999708263,308.38501990000077,[0.44722222222222224],[0.012962962962962963],[1],[0],[0],[1.4771059000013338],['target'],278390,001,2024-10-08_12h53.29.987,visualsearch,2024.1.5,None,2024-10-08 12h53.36.134334 +0530,
155,0,155,0,308.4212071000002,,308.38799690000087,10,308.4212071000002,308.4212071000002,0.019217499997466803,310.0168736000014,[-0.4009259259259259],[0.2388888888888889],[1],[0],[0],[1.6100225999980466],['target'],278390,001,2024-10-08_12h53.29.987,visualsearch,2024.1.5,None,2024-10-08 12h53.36.134334 +0530,
156,0,156,0,310.0597232,,310.01914540000143,10,310.0597232,310.0597232,0.01991939999788883,312.6607001000011,[0.32685185185185184],[-0.4185185185185185],[1],[0],[0],[2.621596799999679],['target'],278390,001,2024-10-08_12h53.29.987,visualsearch,2024.1.5,None,2024-10-08 12h53.36.134334 +0530,
157,0,157,0,312.71205779999946,,312.6628410000012,10,312.71205779999946,312.71205779999946,0.01992640000025858,316.5057620000007,[-0.18425925925925926],[0.06759259259259259],[1],[0],[0],[3.823067000001174],[],278390,001,2024-10-08_12h53.29.987,visualsearch,2024.1.5,None,2024-10-08 12h53.36.134334 +0530,
158,0,158,0,316.56020329999956,,316.50864,10,316.56020329999956,316.56020329999956,0.021430400000099326,323.59688540000207,[-0.18425925925925926],[0.06759259259259259],[1],[0],[0],[7.067006300003413],[],278390,001,2024-10-08_12h53.29.987,visualsearch,2024.1.5,None,2024-10-08 12h53.36.134334 +0530,
159,0,159,0,323.6146927000009,,323.59908030000224,5,323.6146927000009,323.6146927000009,0.010423499999888008,324.8425175000011,[0.11944444444444445],[0.11851851851851852],[1],[0],[0],[1.2331229999981588],['target'],278390,001,2024-10-08_12h53.29.987,visualsearch,2024.1.5,None,2024-10-08 12h53.36.134334 +0530,
160,0,160,0,324.8817495000003,,324.845333199999,10,324.8817495000003,324.8817495000003,0.02407830000083777,327.1229588999995,[0.049074074074074076],[-0.3574074074074074],[1],[0],[0],[2.2539147999996203],['target'],278390,001,2024-10-08_12h53.29.987,visualsearch,2024.1.5,None,2024-10-08 12h53.36.134334 +0530,
161,0,161,0,327.16243920000124,,327.12514609999926,10,327.16243920000124,327.16243920000124,0.020194900000205962,329.3553787000019,[0.46574074074074073],[0.3277777777777778],[1],[0],[0],[2.2099854000007326],['target'],278390,001,2024-10-08_12h53.29.987,visualsearch,2024.1.5,None,2024-10-08 12h53.36.134334 +0530,
162,0,162,0,329.37391370000114,,329.3580667000024,5,329.37391370000114,329.37391370000114,0.011064400001487229,330.42126180000196,[0.2777777777777778],[0.18518518518518517],[1],[0],[0],[1.0524363000004087],['target'],278390,001,2024-10-08_12h53.29.987,visualsearch,2024.1.5,None,2024-10-08 12h53.36.134334 +0530,
163,0,163,0,330.4614302000009,,330.4233836000021,10,330.4614302000009,330.4614302000009,0.023313199999392964,332.80288780000046,[-0.3333333333333333],[0.47685185185185186],[1],[0],[0],[2.3562920999975177],['target'],278390,001,2024-10-08_12h53.29.987,visualsearch,2024.1.5,None,2024-10-08 12h53.36.134334 +0530,
164,0,164,0,332.84161750000203,,332.8056761000007,10,332.84161750000203,332.84161750000203,0.020049899998412002,338.29905990000043,[0.4148148148148148],[0.5],[1],[0],[0],[5.473472599998786],[],278390,001,2024-10-08_12h53.29.987,visualsearch,2024.1.5,None,2024-10-08 12h53.36.134334 +0530,
165,0,165,0,338.3181058000009,,338.30241770000066,5,338.3181058000009,338.3181058000009,0.010316399999283021,339.36647900000025,[0.4166666666666667],[0.5],[1],[0],[0],[1.0538669999987178],['target'],278390,001,2024-10-08_12h53.29.987,visualsearch,2024.1.5,None,2024-10-08 12h53.36.134334 +0530,
166,0,166,0,339.38804399999935,,339.36984010000015,5,339.38804399999935,339.38804399999935,0.01024909999978263,341.080890600002,[-0.5287037037037037],[0.175],[1],[0],[0],[1.7010460999990755],[],278390,001,2024-10-08_12h53.29.987,visualsearch,2024.1.5,None,2024-10-08 12h53.36.134334 +0530,
167,0,167,0,341.1013189000005,,341.0830805000005,5,341.1013189000005,341.1013189000005,0.010240399999020156,343.16305009999996,[-0.04259259259259259],[0.4888888888888889],[1],[0],[0],[2.06990610000139],['target'],278390,001,2024-10-08_12h53.29.987,visualsearch,2024.1.5,None,2024-10-08 12h53.36.134334 +0530,
168,0,168,0,343.18086680000124,,343.1658735000019,5,343.18086680000124,343.18086680000124,0.010112099997058976,344.21255759999985,[0.0824074074074074],[0.17592592592592593],[1],[0],[0],[1.0368588000019372],['target'],278390,001,2024-10-08_12h53.29.987,visualsearch,2024.1.5,None,2024-10-08 12h53.36.134334 +0530,
169,0,169,0,344.2341511000013,,344.21647400000074,5,344.2341511000013,344.2341511000013,0.010820399998920038,345.5614405000015,[0.2953703703703704],[-0.31851851851851853],[1],[0],[0],[1.3346334999987448],['target'],278390,001,2024-10-08_12h53.29.987,visualsearch,2024.1.5,None,2024-10-08 12h53.36.134334 +0530,
170,0,170,0,345.5956369000014,,345.56385130000126,10,345.5956369000014,345.5956369000014,0.019446999998763204,346.67735990000074,[0.08796296296296297],[0.06296296296296296],[1],[0],[0],[1.0941253999990295],[],278390,001,2024-10-08_12h53.29.987,visualsearch,2024.1.5,None,2024-10-08 12h53.36.134334 +0530,
171,0,171,0,346.7192877000016,,346.67947920000006,10,346.7192877000016,346.7192877000016,0.019620600000052946,348.8088886000005,[-0.3138888888888889],[-0.05740740740740741],[1],[0],[0],[2.1099542000010842],['target'],278390,001,2024-10-08_12h53.29.987,visualsearch,2024.1.5,None,2024-10-08 12h53.36.134334 +0530,
172,0,172,0,348.82912510000097,,348.81108200000017,5,348.82912510000097,348.82912510000097,0.01020770000104676,350.79203920000145,[0.23148148148148148],[-0.07314814814814814],[1],[0],[0],[1.9708672000015213],[],278390,001,2024-10-08_12h53.29.987,visualsearch,2024.1.5,None,2024-10-08 12h53.36.134334 +0530,
173,0,173,0,350.8121011000003,,350.7947916000012,5,350.8121011000003,350.8121011000003,0.010160699999687495,352.65728189999936,[0.003703703703703704],[0.3194444444444444],[1],[0],[0],[1.8526146000003791],['target'],278390,001,2024-10-08_12h53.29.987,visualsearch,2024.1.5,None,2024-10-08 12h53.36.134334 +0530,
174,0,174,0,352.69201149999935,,352.65940110000156,10,352.69201149999935,352.69201149999935,0.02019270000164397,354.9554750000025,[-0.21481481481481482],[0.0787037037037037],[1],[0],[0],[2.276022300000477],['target'],278390,001,2024-10-08_12h53.29.987,visualsearch,2024.1.5,None,2024-10-08 12h53.36.134334 +0530,
175,0,175,0,354.993521700002,,354.95766229999936,10,354.993521700002,354.993521700002,0.019749700000829762,358.4700049000021,[-0.3101851851851852],[-0.25092592592592594],[1],[0],[0],[3.4927085999988776],[],278390,001,2024-10-08_12h53.29.987,visualsearch,2024.1.5,None,2024-10-08 12h53.36.134334 +0530,
176,0,176,0,358.4885780000004,,358.4723369000021,5,358.4885780000004,358.4885780000004,0.0102441999988514,360.5019902000022,[0.003703703703703704],[-0.26851851851851855],[1],[0],[0],[2.019631600000139],['target'],278390,001,2024-10-08_12h53.29.987,visualsearch,2024.1.5,None,2024-10-08 12h53.36.134334 +0530,
177,0,177,0,360.52013440000155,,360.50418809999974,5,360.52013440000155,360.52013440000155,0.010855000000447035,362.66720220000207,[-0.45185185185185184],[0.23703703703703705],[1],[0],[0],[2.1523141999969084],['target'],278390,001,2024-10-08_12h53.29.987,visualsearch,2024.1.5,None,2024-10-08 12h53.36.134334 +0530,
178,0,178,0,362.6866207999992,,362.66938819999996,5,362.6866207999992,362.6866207999992,0.010137100001884392,364.0162206999994,[-0.11203703703703703],[0.3435185185185185],[1],[0],[0],[1.3368531999985862],['target'],278390,001,2024-10-08_12h53.29.987,visualsearch,2024.1.5,None,2024-10-08 12h53.36.134334 +0530,
179,0,179,0,364.03683770000134,,364.0185349000021,5,364.03683770000134,364.03683770000134,0.010215300000709249,365.5821414999991,[0.26851851851851855],[0.3314814814814815],[1],[0],[0],[1.5536018999991938],['target'],278390,001,2024-10-08_12h53.29.987,visualsearch,2024.1.5,None,2024-10-08 12h53.36.134334 +0530,
180,0,180,0,365.61687000000165,,365.5847697999998,10,365.61687000000165,365.61687000000165,0.02019260000088252,368.58371890000126,[0.12407407407407407],[-0.2175925925925926],[1],[0],[0],[2.978821600001538],['target'],278390,001,2024-10-08_12h53.29.987,visualsearch,2024.1.5,None,2024-10-08 12h53.36.134334 +0530,
181,0,181,0,368.6429257000018,,368.5882765999995,10,368.6429257000018,368.6429257000018,0.03222290000121575,371.56094289999965,[-0.4388888888888889],[0.3851851851851852],[1],[0],[0],[2.9411734999994223],['target'],278390,001,2024-10-08_12h53.29.987,visualsearch,2024.1.5,None,2024-10-08 12h53.36.134334 +0530,
182,0,182,0,371.60282240000015,,371.5631596000021,10,371.60282240000015,371.60282240000015,0.019896799996786285,373.7308269000023,[0.14814814814814814],[-0.08425925925925926],[1],[0],[0],[2.147835900002974],['target'],278390,001,2024-10-08_12h53.29.987,visualsearch,2024.1.5,None,2024-10-08 12h53.36.134334 +0530,
183,0,183,0,373.74904380000226,,373.73344700000234,5,373.74904380000226,373.74904380000226,0.010651900000084424,375.3438625000017,[-0.45555555555555555],[0.001851851851851852],[1],[0],[0],[1.6000028000016755],['target'],278390,001,2024-10-08_12h53.29.987,visualsearch,2024.1.5,None,2024-10-08 12h53.36.134334 +0530,
184,0,184,0,375.3635472999995,,375.346005899999,5,375.3635472999995,375.3635472999995,0.01202440000270144,375.59268729999894,[-0.45555555555555555],[0.001851851851851852],[1],[0],[0],[0.2347805999997945],[],278390,001,2024-10-08_12h53.29.987,visualsearch,2024.1.5,None,2024-10-08 12h53.36.134334 +0530,
185,0,185,0,375.632523100001,,375.59523320000153,10,375.632523100001,375.632523100001,0.02386809999734396,381.13856300000043,[0.24722222222222223],[0.4462962962962963],[1],[0],[0],[5.51970430000074],[],278390,001,2024-10-08_12h53.29.987,visualsearch,2024.1.5,None,2024-10-08 12h53.36.134334 +0530,
186,0,186,0,381.1757437000015,,381.14078230000086,10,381.1757437000015,381.1757437000015,0.020012599998153746,384.2033149000017,[-0.40370370370370373],[-0.4148148148148148],[1],[0],[0],[3.0427201999991667],['target'],278390,001,2024-10-08_12h53.29.987,visualsearch,2024.1.5,None,2024-10-08 12h53.36.134334 +0530,
187,0,187,0,384.2258341000015,,384.20561760000055,5,384.2258341000015,384.2258341000015,0.01221589999840944,385.5864861000009,[-0.21203703703703702],[0.046296296296296294],[1],[0],[0],[1.3689159999994445],['target'],278390,001,2024-10-08_12h53.29.987,visualsearch,2024.1.5,None,2024-10-08 12h53.36.134334 +0530,
188,0,188,0,385.60747640000045,,385.5886061000019,5,385.60747640000045,385.60747640000045,0.010419899997941684,386.78585360000216,[0.34814814814814815],[-0.04351851851851852],[1],[0],[0],[1.1866980999984662],['target'],278390,001,2024-10-08_12h53.29.987,visualsearch,2024.1.5,None,2024-10-08 12h53.36.134334 +0530,
189,0,189,0,386.8230598000009,,386.78970449999906,10,386.8230598000009,386.8230598000009,0.019981299999926705,390.0163724000013,[-0.2833333333333333],[0.32314814814814813],[1],[0],[0],[3.2072341999992204],['target'],278390,001,2024-10-08_12h53.29.987,visualsearch,2024.1.5,None,2024-10-08 12h53.36.134334 +0530,
190,0,190,0,390.0356533000013,,390.01888150000013,5,390.0356533000013,390.0356533000013,0.010420999999041669,392.3820964000006,[0.08888888888888889],[-0.34814814814814815],[1],[0],[0],[2.352989600000001],['target'],278390,001,2024-10-08_12h53.29.987,visualsearch,2024.1.5,None,2024-10-08 12h53.36.134334 +0530,
191,0,191,0,392.4013603000021,,392.3842504000022,5,392.4013603000021,392.4013603000021,0.010185099999944214,393.90121250000084,[0.19074074074074074],[0.002777777777777778],[1],[0],[0],[1.5065568999998504],['target'],278390,001,2024-10-08_12h53.29.987,visualsearch,2024.1.5,None,2024-10-08 12h53.36.134334 +0530,
192,0,192,0,393.9225105000005,,393.9049903000014,5,393.9225105000005,393.9225105000005,0.011474200000520796,394.44728600000235,[0.19074074074074074],[0.002777777777777778],[1],[0],[0],[0.5313466000006883],['target'],278390,001,2024-10-08_12h53.29.987,visualsearch,2024.1.5,None,2024-10-08 12h53.36.134334 +0530,
193,0,193,0,394.4670511000004,,394.449432100002,5,394.4670511000004,394.4670511000004,0.010584499999822583,395.7311257000001,[0.11666666666666667],[-0.15462962962962962],[1],[0],[0],[1.2711475000032806],['target'],278390,001,2024-10-08_12h53.29.987,visualsearch,2024.1.5,None,2024-10-08 12h53.36.134334 +0530,
194,0,194,0,395.7718803000025,,395.7332109000017,10,395.7718803000025,395.7718803000025,0.025144599996565375,397.22829920000004,[-0.16296296296296298],[0.44351851851851853],[1],[0],[0],[1.470162400000845],['target'],278390,001,2024-10-08_12h53.29.987,visualsearch,2024.1.5,None,2024-10-08 12h53.36.134334 +0530,
195,0,195,0,397.24893050000173,,397.2304715999999,5,397.24893050000173,397.24893050000173,0.011609999997745035,398.878158800002,[-0.5157407407407407],[-0.10925925925925926],[1],[0],[0],[1.6362936000004993],['target'],278390,001,2024-10-08_12h53.29.987,visualsearch,2024.1.5,None,2024-10-08 12h53.36.134334 +0530,
196,0,196,0,398.8976776999989,,398.8802988000025,5,398.8976776999989,398.8976776999989,0.010431899998366134,400.0937053000016,[-0.05555555555555555],[-0.28703703703703703],[1],[0],[0],[1.2031486999985646],['target'],278390,001,2024-10-08_12h53.29.987,visualsearch,2024.1.5,None,2024-10-08 12h53.36.134334 +0530,
197,0,197,0,400.1134426999997,,400.0958995000001,5,400.1134426999997,400.1134426999997,0.010155700001632795,401.8755440999994,[-0.037037037037037035],[-0.04537037037037037],[1],[0],[0],[1.769660699999804],['target'],278390,001,2024-10-08_12h53.29.987,visualsearch,2024.1.5,None,2024-10-08 12h53.36.134334 +0530,
198,0,198,0,401.8942172999996,,401.87820980000106,5,401.8942172999996,401.8942172999996,0.010189100001298357,404.4075262000006,[0.47962962962962963],[-0.34074074074074073],[1],[0],[0],[2.519363700001122],['target'],278390,001,2024-10-08_12h53.29.987,visualsearch,2024.1.5,None,2024-10-08 12h53.36.134334 +0530,
199,0,199,0,404.4260154000003,,404.4096314000017,5,404.4260154000003,404.4260154000003,0.01017169999977341,406.3562382000018,[0.010185185185185186],[0.014814814814814815],[1],[0],[0],[1.9365438999993785],[],278390,001,2024-10-08_12h53.29.987,visualsearch,2024.1.5,None,2024-10-08 12h53.36.134334 +0530,
