trials.thisRepN,trials.thisTrialN,trials.thisN,trials.thisIndex,thisRow.t,notes,trial.started,num_distr,fixation.started,target.started,mouse.started,trial.stopped,mouse.x,mouse.y,mouse.leftButton,mouse.midButton,mouse.rightButton,mouse.time,mouse.clicked_name,participant,session,date,expName,psychopyVersion,frameRate,expStart,
0,0,0,0,0.04272180004045367,,0.013953099958598614,5,0.04272180004045367,0.04272180004045367,0.027393100084736943,1.500213999999687,[0.3983333333333333],[-0.0016666666666666668],[1],[0],[0],[1.4723495999351144],[],508608,001,2024-10-07_19h45.51.291,visualsearch,2024.1.5,None,2024-10-07 19h45.57.161854 +0530,
1,0,1,0,1.5422507000621408,,1.5039120998699218,10,1.5422507000621408,1.5422507000621408,0.023252899991348386,2.9284260999411345,[0.29333333333333333],[0.3333333333333333],[1],[0],[0],[1.4011840000748634],['target'],508608,001,2024-10-07_19h45.51.291,visualsearch,2024.1.5,None,2024-10-07 19h45.57.161854 +0530,
2,0,2,0,2.9912109000142664,,2.9316950999200344,10,2.9912109000142664,2.9912109000142664,0.024954000022262335,3.76407100004144,[0.4533333333333333],[0.16833333333333333],[1],[0],[0],[0.8076526999939233],[],508608,001,2024-10-07_19h45.51.291,visualsearch,2024.1.5,None,2024-10-07 19h45.57.161854 +0530,
3,0,3,0,3.807113799965009,,3.767829400021583,10,3.807113799965009,3.807113799965009,0.02165520004928112,5.010372099932283,[0.47833333333333333],[-0.10166666666666667],[1],[0],[0],[1.2211849000304937],['target'],508608,001,2024-10-07_19h45.51.291,visualsearch,2024.1.5,None,2024-10-07 19h45.57.161854 +0530,
4,0,4,0,5.073289499850944,,5.013495799852535,10,5.073289499850944,5.073289499850944,0.02228609984740615,6.775283899856731,[0.3566666666666667],[0.14333333333333334],[1],[0],[0],[1.7397506998386234],['target'],508608,001,2024-10-07_19h45.51.291,visualsearch,2024.1.5,None,2024-10-07 19h45.57.161854 +0530,
5,0,5,0,6.838615299900994,,6.778354000067338,10,6.838615299900994,6.838615299900994,0.021670999936759472,9.890235600061715,[-0.44],[0.475],[1],[0],[0],[3.090464900014922],['target'],508608,001,2024-10-07_19h45.51.291,visualsearch,2024.1.5,None,2024-10-07 19h45.57.161854 +0530,
6,0,6,0,9.953388500027359,,9.892514599952847,10,9.953388500027359,9.953388500027359,0.026830599876120687,12.753949099918827,[0.4066666666666667],[-0.445],[1],[0],[0],[2.8347234001848847],['target'],508608,001,2024-10-07_19h45.51.291,visualsearch,2024.1.5,None,2024-10-07 19h45.57.161854 +0530,
7,0,7,0,12.818479999899864,,12.756202599965036,10,12.818479999899864,12.818479999899864,0.02276329998858273,24.581745099974796,[0.2633333333333333],[0.12166666666666667],[1],[0],[0],[11.802596900146455],[],508608,001,2024-10-07_19h45.51.291,visualsearch,2024.1.5,None,2024-10-07 19h45.57.161854 +0530,
8,0,8,0,24.677542299963534,,24.58621950005181,10,24.677542299963534,24.677542299963534,0.03150809998624027,35.05909670004621,[0.375],[-0.45166666666666666],[1],[0],[0],[10.441577899968252],[],508608,001,2024-10-07_19h45.51.291,visualsearch,2024.1.5,None,2024-10-07 19h45.57.161854 +0530,
9,0,9,0,35.08734269998968,,35.062887700041756,5,35.08734269998968,35.08734269998968,0.012592199956998229,36.19312660000287,[0.17166666666666666],[-0.34833333333333333],[1],[0],[0],[1.1180362000595778],['target'],508608,001,2024-10-07_19h45.51.291,visualsearch,2024.1.5,None,2024-10-07 19h45.57.161854 +0530,
10,0,10,0,36.23637479986064,,36.195892999880016,10,36.23637479986064,36.23637479986064,0.023334699915722013,37.975495900027454,[0.31833333333333336],[0.19833333333333333],[1],[0],[0],[1.7558638998307288],['target'],508608,001,2024-10-07_19h45.51.291,visualsearch,2024.1.5,None,2024-10-07 19h45.57.161854 +0530,
11,0,11,0,38.002113400027156,,37.978459500009194,5,38.002113400027156,38.002113400027156,0.012483699945732951,38.89060619985685,[0.17833333333333334],[0.041666666666666664],[1],[0],[0],[0.899803499924019],['target'],508608,001,2024-10-07_19h45.51.291,visualsearch,2024.1.5,None,2024-10-07 19h45.57.161854 +0530,
12,0,12,0,38.91857609990984,,38.892710000043735,5,38.91857609990984,38.91857609990984,0.013115399982780218,39.99128109985031,[0.3616666666666667],[-0.35333333333333333],[1],[0],[0],[1.0855431000236422],[],508608,001,2024-10-07_19h45.51.291,visualsearch,2024.1.5,None,2024-10-07 19h45.57.161854 +0530,
13,0,13,0,40.03404169995338,,39.9934642999433,5,40.03404169995338,40.03404169995338,0.013696500100195408,41.039022699929774,[-0.3283333333333333],[0.31666666666666665],[1],[0],[0],[1.0320324001368135],['target'],508608,001,2024-10-07_19h45.51.291,visualsearch,2024.1.5,None,2024-10-07 19h45.57.161854 +0530,
14,0,14,0,41.066565099870786,,41.041899000061676,5,41.066565099870786,41.066565099870786,0.01327840005978942,42.28867689985782,[0.21833333333333332],[-0.31],[1],[0],[0],[1.2341958999168128],['target'],508608,001,2024-10-07_19h45.51.291,visualsearch,2024.1.5,None,2024-10-07 19h45.57.161854 +0530,
15,0,15,0,42.33297109999694,,42.290885200025514,10,42.33297109999694,42.33297109999694,0.027252099942415953,48.30203039990738,[-0.2683333333333333],[0.12166666666666667],[1],[0],[0],[5.983996900031343],['target'],508608,001,2024-10-07_19h45.51.291,visualsearch,2024.1.5,None,2024-10-07 19h45.57.161854 +0530,
16,0,16,0,48.36223239987157,,48.30412029987201,10,48.36223239987157,48.36223239987157,0.025722600053995848,49.933683699928224,[0.03833333333333333],[0.035],[1],[0],[0],[1.6038846999872476],[],508608,001,2024-10-07_19h45.51.291,visualsearch,2024.1.5,None,2024-10-07 19h45.57.161854 +0530,
17,0,17,0,49.9944926998578,,49.935911800013855,10,49.9944926998578,49.9944926998578,0.020224699983373284,55.8601442000363,[-0.185],[-0.165],[1],[0],[0],[5.904203800018877],['target'],508608,001,2024-10-07_19h45.51.291,visualsearch,2024.1.5,None,2024-10-07 19h45.57.161854 +0530,
18,0,18,0,55.92420280002989,,55.863057899987325,10,55.92420280002989,55.92420280002989,0.025950900046154857,64.42202429985628,[0.20833333333333334],[-0.41],[1],[0],[0],[8.53374470002018],[],508608,001,2024-10-07_19h45.51.291,visualsearch,2024.1.5,None,2024-10-07 19h45.57.161854 +0530,
19,0,19,0,64.48535720002837,,64.42420629994012,10,64.48535720002837,64.48535720002837,0.02376769995316863,71.33351349993609,[0.013333333333333334],[-0.07666666666666666],[1],[0],[0],[6.8856043999549],[],508608,001,2024-10-07_19h45.51.291,visualsearch,2024.1.5,None,2024-10-07 19h45.57.161854 +0530,
20,0,20,0,71.36409809999168,,71.33635669993237,5,71.36409809999168,71.36409809999168,0.01463530003093183,73.06976690003648,[-0.15833333333333333],[0.22333333333333333],[1],[0],[0],[1.71916180010885],['target'],508608,001,2024-10-07_19h45.51.291,visualsearch,2024.1.5,None,2024-10-07 19h45.57.161854 +0530,
21,0,21,0,73.11316519998945,,73.07195999985561,10,73.11316519998945,73.11316519998945,0.022302099969238043,84.55983110005036,[0.44],[0.485],[1],[0],[0],[11.465902999974787],['target'],508608,001,2024-10-07_19h45.51.291,visualsearch,2024.1.5,None,2024-10-07 19h45.57.161854 +0530,
22,0,22,0,84.62203920003958,,84.56274219998159,10,84.62203920003958,84.62203920003958,0.02494999999180436,87.79285470000468,[-0.37666666666666665],[0.14666666666666667],[1],[0],[0],[3.2058570000808686],['target'],508608,001,2024-10-07_19h45.51.291,visualsearch,2024.1.5,None,2024-10-07 19h45.57.161854 +0530,
23,0,23,0,87.85378620005213,,87.79529419983737,10,87.85378620005213,87.85378620005213,0.027234199922531843,88.95552089996636,[-0.011666666666666667],[0.31166666666666665],[1],[0],[0],[1.1331741001922637],['target'],508608,001,2024-10-07_19h45.51.291,visualsearch,2024.1.5,None,2024-10-07 19h45.57.161854 +0530,
24,0,24,0,88.98631509998813,,88.9578412999399,5,88.98631509998813,88.98631509998813,0.0107551000546664,90.82463079993613,[-0.345],[-0.4033333333333333],[0],[0],[1],[1.8562706999946386],['target'],508608,001,2024-10-07_19h45.51.291,visualsearch,2024.1.5,None,2024-10-07 19h45.57.161854 +0530,
25,0,25,0,90.86883559986018,,90.82716019987129,5,90.86883559986018,90.86883559986018,0.014855799963697791,91.92475340003148,[0.17833333333333334],[-0.4],[1],[0],[0],[1.0832710000686347],['target'],508608,001,2024-10-07_19h45.51.291,visualsearch,2024.1.5,None,2024-10-07 19h45.57.161854 +0530,
26,0,26,0,91.95101429987699,,91.92726269993,5,91.95101429987699,91.95101429987699,0.011176300002261996,92.80618750001304,[0.18],[-0.08833333333333333],[1],[0],[0],[0.8679001000709832],['target'],508608,001,2024-10-07_19h45.51.291,visualsearch,2024.1.5,None,2024-10-07 19h45.57.161854 +0530,
27,0,27,0,92.8336875999812,,92.8092499000486,5,92.8336875999812,92.8336875999812,0.013266299851238728,98.6027881000191,[0.03166666666666667],[-0.041666666666666664],[1],[0],[0],[5.780309700174257],[],508608,001,2024-10-07_19h45.51.291,visualsearch,2024.1.5,None,2024-10-07 19h45.57.161854 +0530,
28,0,28,0,98.64692440000363,,98.6048593998421,10,98.64692440000363,98.64692440000363,0.022585300030186772,99.55119779985398,[0.07666666666666666],[0.1],[1],[0],[0],[0.9236909002065659],['target'],508608,001,2024-10-07_19h45.51.291,visualsearch,2024.1.5,None,2024-10-07 19h45.57.161854 +0530,
29,0,29,0,99.57991390000097,,99.55365679995157,5,99.57991390000097,99.57991390000097,0.012307099997997284,100.65281579992734,[-0.5216666666666666],[0.013333333333333334],[1],[0],[0],[1.086876300163567],[],508608,001,2024-10-07_19h45.51.291,visualsearch,2024.1.5,None,2024-10-07 19h45.57.161854 +0530,
30,0,30,0,100.69583790004253,,100.65564580005594,10,100.69583790004253,100.69583790004253,0.024071200052276254,103.26747289998457,[-0.47333333333333333],[-0.4033333333333333],[1],[0],[0],[2.587844300083816],['target'],508608,001,2024-10-07_19h45.51.291,visualsearch,2024.1.5,None,2024-10-07 19h45.57.161854 +0530,
31,0,31,0,103.29404479986988,,103.2695583999157,5,103.29404479986988,103.29404479986988,0.01139779994264245,104.29941609990783,[0.3233333333333333],[0.15166666666666667],[1],[0],[0],[1.0180661000777036],[],508608,001,2024-10-07_19h45.51.291,visualsearch,2024.1.5,None,2024-10-07 19h45.57.161854 +0530,
32,0,32,0,104.32693039998412,,104.3019371998962,5,104.32693039998412,104.32693039998412,0.015390600077807903,105.42979520000517,[-0.22666666666666666],[0.355],[1],[0],[0],[1.1126612999942154],['target'],508608,001,2024-10-07_19h45.51.291,visualsearch,2024.1.5,None,2024-10-07 19h45.57.161854 +0530,
33,0,33,0,105.45910009997897,,105.43189969984815,5,105.45910009997897,105.45910009997897,0.014373600017279387,107.18172149988823,[-0.45],[0.4816666666666667],[1],[0],[0],[1.735601699911058],['target'],508608,001,2024-10-07_19h45.51.291,visualsearch,2024.1.5,None,2024-10-07 19h45.57.161854 +0530,
34,0,34,0,107.2081801998429,,107.18388899997808,5,107.2081801998429,107.2081801998429,0.013207999989390373,108.16242909990251,[-0.051666666666666666],[0.42833333333333334],[1],[0],[0],[0.9655339000746608],['target'],508608,001,2024-10-07_19h45.51.291,visualsearch,2024.1.5,None,2024-10-07 19h45.57.161854 +0530,
35,0,35,0,108.19041029992513,,108.16545520001091,5,108.19041029992513,108.19041029992513,0.01398090017028153,108.99495540000498,[-0.13333333333333333],[0.20333333333333334],[1],[0],[0],[0.8157105001155287],['target'],508608,001,2024-10-07_19h45.51.291,visualsearch,2024.1.5,None,2024-10-07 19h45.57.161854 +0530,
36,0,36,0,109.0397961998824,,108.99783709994517,10,109.0397961998824,109.0397961998824,0.024635300040245056,110.96011579991318,[0.455],[0.4216666666666667],[1],[0],[0],[1.937647599959746],['target'],508608,001,2024-10-07_19h45.51.291,visualsearch,2024.1.5,None,2024-10-07 19h45.57.161854 +0530,
37,0,37,0,111.00575060001574,,110.96333519998007,10,111.00575060001574,111.00575060001574,0.023193399887531996,111.9251770998817,[0.22833333333333333],[0.425],[1],[0],[0],[0.9390011001378298],['target'],508608,001,2024-10-07_19h45.51.291,visualsearch,2024.1.5,None,2024-10-07 19h45.57.161854 +0530,
38,0,38,0,111.97201259993017,,111.92839649994858,10,111.97201259993017,111.97201259993017,0.021369100082665682,116.00823479983956,[-0.25833333333333336],[-0.06833333333333333],[1],[0],[0],[4.058733399957418],[],508608,001,2024-10-07_19h45.51.291,visualsearch,2024.1.5,None,2024-10-07 19h45.57.161854 +0530,
39,0,39,0,116.06932380003855,,116.01175770000555,10,116.06932380003855,116.06932380003855,0.021713499911129475,121.53541480004787,[-0.025],[-0.47333333333333333],[1],[0],[0],[5.502243899973109],[],508608,001,2024-10-07_19h45.51.291,visualsearch,2024.1.5,None,2024-10-07 19h45.57.161854 +0530,
40,0,40,0,121.59950899984688,,121.5384145998396,10,121.59950899984688,121.59950899984688,0.022031999891623855,123.76788609987125,[-0.435],[0.03333333333333333],[1],[0],[0],[2.2074892001692206],['target'],508608,001,2024-10-07_19h45.51.291,visualsearch,2024.1.5,None,2024-10-07 19h45.57.161854 +0530,
41,0,41,0,123.79777489998378,,123.77109869988635,5,123.79777489998378,123.79777489998378,0.011618700111284852,126.90163940005004,[-0.4266666666666667],[0.47833333333333333],[1],[0],[0],[3.119088500039652],['target'],508608,001,2024-10-07_19h45.51.291,visualsearch,2024.1.5,None,2024-10-07 19h45.57.161854 +0530,
42,0,42,0,126.94551549991593,,126.90446879994124,10,126.94551549991593,126.94551549991593,0.026628600200638175,128.58277680003084,[0.4866666666666667],[0.205],[1],[0],[0],[1.6525966001208872],['target'],508608,001,2024-10-07_19h45.51.291,visualsearch,2024.1.5,None,2024-10-07 19h45.57.161854 +0530,
43,0,43,0,128.6448355000466,,128.58496909984387,10,128.6448355000466,128.6448355000466,0.025420699967071414,136.90942829987034,[-0.10333333333333333],[0.31333333333333335],[1],[0],[0],[8.299090399872512],[],508608,001,2024-10-07_19h45.51.291,visualsearch,2024.1.5,None,2024-10-07 19h45.57.161854 +0530,
44,0,44,0,136.9395518999081,,136.91261289990507,5,136.9395518999081,136.9395518999081,0.013571500079706311,138.69211900001392,[-0.12666666666666668],[0.02],[1],[0],[0],[1.7664725000504404],['target'],508608,001,2024-10-07_19h45.51.291,visualsearch,2024.1.5,None,2024-10-07 19h45.57.161854 +0530,
45,0,45,0,138.7211670000106,,138.69480499997735,5,138.7211670000106,138.7211670000106,0.01247519999742508,141.59147810004652,[0.2733333333333333],[0.45166666666666666],[1],[0],[0],[2.8848664998076856],['target'],508608,001,2024-10-07_19h45.51.291,visualsearch,2024.1.5,None,2024-10-07 19h45.57.161854 +0530,
46,0,46,0,141.6196647998877,,141.59366729995236,5,141.6196647998877,141.6196647998877,0.013493899954482913,143.35873209987767,[-0.2633333333333333],[-0.34],[1],[0],[0],[1.7516129000578076],['target'],508608,001,2024-10-07_19h45.51.291,visualsearch,2024.1.5,None,2024-10-07 19h45.57.161854 +0530,
47,0,47,0,143.40182739985175,,143.36100929998793,10,143.40182739985175,143.40182739985175,0.02519760001450777,146.67303599999286,[0.25166666666666665],[0.135],[1],[0],[0],[3.286585600115359],['target'],508608,001,2024-10-07_19h45.51.291,visualsearch,2024.1.5,None,2024-10-07 19h45.57.161854 +0530,
48,0,48,0,146.69986589998007,,146.6765763000585,5,146.69986589998007,146.69986589998007,0.013391799991950393,147.55427339999005,[0.315],[-0.056666666666666664],[1],[0],[0],[0.864662199979648],['target'],508608,001,2024-10-07_19h45.51.291,visualsearch,2024.1.5,None,2024-10-07 19h45.57.161854 +0530,
49,0,49,0,147.59890419989824,,147.55643459991552,10,147.59890419989824,147.59890419989824,0.027797299902886152,149.8185409998987,[-0.3433333333333333],[-0.09333333333333334],[1],[0],[0],[2.234368300065398],['target'],508608,001,2024-10-07_19h45.51.291,visualsearch,2024.1.5,None,2024-10-07 19h45.57.161854 +0530,
50,0,50,0,149.88094579987228,,149.82140660006553,10,149.88094579987228,149.88094579987228,0.024092300096526742,152.71823420003057,[-0.37166666666666665],[-0.31833333333333336],[1],[0],[0],[2.8727384000085294],['target'],508608,001,2024-10-07_19h45.51.291,visualsearch,2024.1.5,None,2024-10-07 19h45.57.161854 +0530,
51,0,51,0,152.74570879992098,,152.72122880001552,5,152.74570879992098,152.74570879992098,0.01334459986537695,154.21590860001743,[0.33166666666666667],[0.42833333333333334],[1],[0],[0],[1.4816974999848753],['target'],508608,001,2024-10-07_19h45.51.291,visualsearch,2024.1.5,None,2024-10-07 19h45.57.161854 +0530,
52,0,52,0,154.24467389984056,,154.2180190999061,5,154.24467389984056,154.24467389984056,0.012679000152274966,155.71637300006114,[-0.34833333333333333],[-0.10166666666666667],[1],[0],[0],[1.4857001998461783],['target'],508608,001,2024-10-07_19h45.51.291,visualsearch,2024.1.5,None,2024-10-07 19h45.57.161854 +0530,
53,0,53,0,155.74416460003704,,155.7184152000118,5,155.74416460003704,155.74416460003704,0.014885100070387125,156.96455310005695,[-0.32166666666666666],[-0.3433333333333333],[1],[0],[0],[1.2312531999778003],['target'],508608,001,2024-10-07_19h45.51.291,visualsearch,2024.1.5,None,2024-10-07 19h45.57.161854 +0530,
54,0,54,0,156.9931312999688,,156.96670420002192,5,156.9931312999688,156.9931312999688,0.012135300086811185,158.2641783999279,[0.30666666666666664],[0.27166666666666667],[1],[0],[0],[1.2855329001322389],['target'],508608,001,2024-10-07_19h45.51.291,visualsearch,2024.1.5,None,2024-10-07 19h45.57.161854 +0530,
55,0,55,0,158.3087291000411,,158.26632569986396,10,158.3087291000411,158.3087291000411,0.02258430002257228,173.73627999983728,[-0.005],[-0.025],[1],[0],[0],[15.447444899939],[],508608,001,2024-10-07_19h45.51.291,visualsearch,2024.1.5,None,2024-10-07 19h45.57.161854 +0530,
56,0,56,0,173.76571419998072,,173.73911960003898,5,173.76571419998072,173.76571419998072,0.016250499989837408,174.62080669985153,[-0.02],[0.2733333333333333],[1],[0],[0],[0.8661191000137478],['target'],508608,001,2024-10-07_19h45.51.291,visualsearch,2024.1.5,None,2024-10-07 19h45.57.161854 +0530,
57,0,57,0,174.64858260005713,,174.62362840003334,5,174.64858260005713,174.64858260005713,0.010816300055012107,176.1359554999508,[-0.11833333333333333],[0.05],[1],[0],[0],[1.5017287000082433],['target'],508608,001,2024-10-07_19h45.51.291,visualsearch,2024.1.5,None,2024-10-07 19h45.57.161854 +0530,
58,0,58,0,176.1809141000267,,176.13889629999176,10,176.1809141000267,176.1809141000267,0.029254999943077564,181.18276840006,[-0.49166666666666664],[0.49166666666666664],[1],[0],[0],[5.015552199911326],['target'],508608,001,2024-10-07_19h45.51.291,visualsearch,2024.1.5,None,2024-10-07 19h45.57.161854 +0530,
59,0,59,0,181.24411639990285,,181.18608639994636,10,181.24411639990285,181.24411639990285,0.02473099995404482,182.8960041999817,[0.11666666666666667],[0.22833333333333333],[1],[0],[0],[1.6851836999412626],['target'],508608,001,2024-10-07_19h45.51.291,visualsearch,2024.1.5,None,2024-10-07 19h45.57.161854 +0530,
60,0,60,0,182.92714759986848,,182.89833749993704,5,182.92714759986848,182.92714759986848,0.013732600025832653,186.44641610002145,[-0.135],[0.49],[1],[0],[0],[3.534617400029674],['target'],508608,001,2024-10-07_19h45.51.291,visualsearch,2024.1.5,None,2024-10-07 19h45.57.161854 +0530,
61,0,61,0,186.49126389995217,,186.44851380004548,10,186.49126389995217,186.49126389995217,0.021370300091803074,188.92646649992093,[0.24833333333333332],[0.23],[1],[0],[0],[2.4567248998209834],['target'],508608,001,2024-10-07_19h45.51.291,visualsearch,2024.1.5,None,2024-10-07 19h45.57.161854 +0530,
62,0,62,0,188.95606720005162,,188.92891029990278,5,188.95606720005162,188.95606720005162,0.00946419988758862,190.34308540006168,[0.20833333333333334],[-0.3416666666666667],[1],[0],[0],[1.4048936001490802],['target'],508608,001,2024-10-07_19h45.51.291,visualsearch,2024.1.5,None,2024-10-07 19h45.57.161854 +0530,
63,0,63,0,190.37209329986945,,190.34518889989704,5,190.37209329986945,190.37209329986945,0.012406500056385994,192.00846559996717,[0.42833333333333334],[0.023333333333333334],[1],[0],[0],[1.651027200045064],['target'],508608,001,2024-10-07_19h45.51.291,visualsearch,2024.1.5,None,2024-10-07 19h45.57.161854 +0530,
64,0,64,0,192.03736529988237,,192.01063219993375,5,192.03736529988237,192.03736529988237,0.013805299997329712,193.17798949987628,[-0.10666666666666667],[-0.23333333333333334],[1],[0],[0],[1.1535815000534058],['target'],508608,001,2024-10-07_19h45.51.291,visualsearch,2024.1.5,None,2024-10-07 19h45.57.161854 +0530,
65,0,65,0,193.2201787000522,,193.18063770001754,10,193.2201787000522,193.2201787000522,0.0200741000007838,194.923630699981,[0.03833333333333333],[0.38166666666666665],[1],[0],[0],[1.722869399935007],['target'],508608,001,2024-10-07_19h45.51.291,visualsearch,2024.1.5,None,2024-10-07 19h45.57.161854 +0530,
66,0,66,0,194.9695037000347,,194.92610419983976,10,194.9695037000347,194.9695037000347,0.024159400025382638,198.10328170005232,[-0.21666666666666667],[-0.19833333333333333],[1],[0],[0],[3.1532185999676585],['target'],508608,001,2024-10-07_19h45.51.291,visualsearch,2024.1.5,None,2024-10-07 19h45.57.161854 +0530,
67,0,67,0,198.15004039998166,,198.10567469988018,10,198.15004039998166,198.15004039998166,0.02098120003938675,200.3519780000206,[0.08666666666666667],[-0.19666666666666666],[1],[0],[0],[2.2253294000402093],['target'],508608,001,2024-10-07_19h45.51.291,visualsearch,2024.1.5,None,2024-10-07 19h45.57.161854 +0530,
68,0,68,0,200.38224519998766,,200.35414889990352,5,200.38224519998766,200.38224519998766,0.011394100030884147,201.7361077000387,[0.011666666666666667],[0.37166666666666665],[1],[0],[0],[1.3704478999134153],['target'],508608,001,2024-10-07_19h45.51.291,visualsearch,2024.1.5,None,2024-10-07 19h45.57.161854 +0530,
69,0,69,0,201.76485539996065,,201.7392396000214,5,201.76485539996065,201.76485539996065,0.015016800025478005,202.85303999995813,[-0.11166666666666666],[0.09],[1],[0],[0],[1.0991994999349117],['target'],508608,001,2024-10-07_19h45.51.291,visualsearch,2024.1.5,None,2024-10-07 19h45.57.161854 +0530,
70,0,70,0,202.88035600003786,,202.85545609984547,5,202.88035600003786,202.88035600003786,0.014028500067070127,206.95063590002246,[-0.3516666666666667],[-0.385],[1],[0],[0],[4.0811946000903845],[],508608,001,2024-10-07_19h45.51.291,visualsearch,2024.1.5,None,2024-10-07 19h45.57.161854 +0530,
71,0,71,0,206.97781719989143,,206.9534185999073,5,206.97781719989143,206.97781719989143,0.014848400140181184,208.0507435000036,[0.11833333333333333],[0.05333333333333334],[1],[0],[0],[1.0824858997948468],['target'],508608,001,2024-10-07_19h45.51.291,visualsearch,2024.1.5,None,2024-10-07 19h45.57.161854 +0530,
72,0,72,0,208.07765919994563,,208.0537554998882,5,208.07765919994563,208.07765919994563,0.01407240005210042,209.1982088999357,[0.04833333333333333],[-0.01],[1],[0],[0],[1.1306998000945896],['target'],508608,001,2024-10-07_19h45.51.291,visualsearch,2024.1.5,None,2024-10-07 19h45.57.161854 +0530,
73,0,73,0,209.24312969995663,,209.20146259991452,10,209.24312969995663,209.24312969995663,0.023632199969142675,210.41517359996215,[-0.14666666666666667],[-0.025],[1],[0],[0],[1.1900108000263572],['target'],508608,001,2024-10-07_19h45.51.291,visualsearch,2024.1.5,None,2024-10-07 19h45.57.161854 +0530,
74,0,74,0,210.44270240003243,,210.41803139983676,5,210.44270240003243,210.44270240003243,0.013046100037172437,212.32911519985646,[0.045],[0.04833333333333333],[1],[0],[0],[1.898214900167659],['target'],508608,001,2024-10-07_19h45.51.291,visualsearch,2024.1.5,None,2024-10-07 19h45.57.161854 +0530,
75,0,75,0,212.3577638999559,,212.33164489991032,5,212.3577638999559,212.3577638999559,0.015060100005939603,216.4103997000493,[0.18833333333333332],[0.485],[1],[0],[0],[4.063350399956107],['target'],508608,001,2024-10-07_19h45.51.291,visualsearch,2024.1.5,None,2024-10-07 19h45.57.161854 +0530,
76,0,76,0,216.45491790003143,,216.4130011999514,10,216.45491790003143,216.45491790003143,0.025958099868148565,217.9425280999858,[0.015],[0.4583333333333333],[1],[0],[0],[1.503560199867934],[],508608,001,2024-10-07_19h45.51.291,visualsearch,2024.1.5,None,2024-10-07 19h45.57.161854 +0530,
77,0,77,0,217.97115859994665,,217.94473479990847,5,217.97115859994665,217.97115859994665,0.01130340015515685,219.31134829996154,[0.23666666666666666],[-0.18],[1],[0],[0],[1.3549769001547247],[],508608,001,2024-10-07_19h45.51.291,visualsearch,2024.1.5,None,2024-10-07 19h45.57.161854 +0530,
78,0,78,0,219.33699500001967,,219.31352329999208,5,219.33699500001967,219.33699500001967,0.011579400161281228,220.1759446999058,[0.09333333333333334],[-0.15333333333333332],[1],[0],[0],[0.8508087999653071],['target'],508608,001,2024-10-07_19h45.51.291,visualsearch,2024.1.5,None,2024-10-07 19h45.57.161854 +0530,
79,0,79,0,220.22034909995273,,220.17879040003754,10,220.22034909995273,220.22034909995273,0.02585120010189712,228.2177645000629,[0.005],[-0.018333333333333333],[1],[0],[0],[8.013149700127542],[],508608,001,2024-10-07_19h45.51.291,visualsearch,2024.1.5,None,2024-10-07 19h45.57.161854 +0530,
80,0,80,0,228.26443989994004,,228.2198544999119,10,228.26443989994004,228.26443989994004,0.022977099986746907,230.53636559983715,[-0.12833333333333333],[-0.19333333333333333],[1],[0],[0],[2.293466500006616],['target'],508608,001,2024-10-07_19h45.51.291,visualsearch,2024.1.5,None,2024-10-07 19h45.57.161854 +0530,
81,0,81,0,230.5628481998574,,230.5392712999601,5,230.5628481998574,230.5628481998574,0.01269770017825067,232.20021929987706,[-0.18833333333333332],[0.405],[1],[0],[0],[1.6484910000581294],['target'],508608,001,2024-10-07_19h45.51.291,visualsearch,2024.1.5,None,2024-10-07 19h45.57.161854 +0530,
82,0,82,0,232.22870410000905,,232.20272050006315,5,232.22870410000905,232.22870410000905,0.01131929992698133,233.61425970005803,[-0.425],[0.155],[1],[0],[0],[1.4004110000096262],['target'],508608,001,2024-10-07_19h45.51.291,visualsearch,2024.1.5,None,2024-10-07 19h45.57.161854 +0530,
83,0,83,0,233.64438589988276,,233.61640989989974,5,233.64438589988276,233.64438589988276,0.013299799989908934,234.9827924000565,[0.17166666666666666],[0.31333333333333335],[1],[0],[0],[1.3529389998875558],['target'],508608,001,2024-10-07_19h45.51.291,visualsearch,2024.1.5,None,2024-10-07 19h45.57.161854 +0530,
84,0,84,0,235.0270946000237,,234.98486339999363,10,235.0270946000237,235.0270946000237,0.026732099941000342,236.89629939990118,[-0.27666666666666667],[-0.24166666666666667],[1],[0],[0],[1.884683100041002],['target'],508608,001,2024-10-07_19h45.51.291,visualsearch,2024.1.5,None,2024-10-07 19h45.57.161854 +0530,
85,0,85,0,236.92562099988572,,236.89841230004095,5,236.92562099988572,236.92562099988572,0.01217709993943572,238.5478089998942,[0.4033333333333333],[-0.065],[1],[0],[0],[1.637421099934727],['target'],508608,001,2024-10-07_19h45.51.291,visualsearch,2024.1.5,None,2024-10-07 19h45.57.161854 +0530,
86,0,86,0,238.57478989986703,,238.55080650001764,5,238.57478989986703,238.57478989986703,0.012555599911138415,239.84557810006663,[0.22833333333333333],[0.435],[1],[0],[0],[1.2824331999290735],['target'],508608,001,2024-10-07_19h45.51.291,visualsearch,2024.1.5,None,2024-10-07 19h45.57.161854 +0530,
87,0,87,0,239.87346509983763,,239.84782140003517,5,239.87346509983763,239.87346509983763,0.015776999993249774,242.92827409994788,[-0.045],[-0.27],[1],[0],[0],[3.0647497999016196],['target'],508608,001,2024-10-07_19h45.51.291,visualsearch,2024.1.5,None,2024-10-07 19h45.57.161854 +0530,
88,0,88,0,242.95546069997363,,242.9304315999616,5,242.95546069997363,242.95546069997363,0.012447399785742164,244.10845059994608,[0.12333333333333334],[0.36833333333333335],[1],[0],[0],[1.1658014999702573],['target'],508608,001,2024-10-07_19h45.51.291,visualsearch,2024.1.5,None,2024-10-07 19h45.57.161854 +0530,
89,0,89,0,244.1376469999086,,244.11056649987586,5,244.1376469999086,244.1376469999086,0.01500399992801249,248.57352779991925,[0.03666666666666667],[0.021666666666666667],[1],[0],[0],[4.448175400029868],[],508608,001,2024-10-07_19h45.51.291,visualsearch,2024.1.5,None,2024-10-07 19h45.57.161854 +0530,
90,0,90,0,248.60113309998997,,248.57584259985015,5,248.60113309998997,248.60113309998997,0.01342179998755455,249.973529699957,[0.425],[-0.25166666666666665],[1],[0],[0],[1.384404000127688],['target'],508608,001,2024-10-07_19h45.51.291,visualsearch,2024.1.5,None,2024-10-07 19h45.57.161854 +0530,
91,0,91,0,250.0011600998696,,249.9759712999221,5,250.0011600998696,250.0011600998696,0.015117600094527006,251.44137219991535,[-0.315],[0.07333333333333333],[1],[0],[0],[1.4504124999511987],['target'],508608,001,2024-10-07_19h45.51.291,visualsearch,2024.1.5,None,2024-10-07 19h45.57.161854 +0530,
92,0,92,0,251.4663819000125,,251.44375330000184,5,251.4663819000125,251.4663819000125,0.012977599864825606,252.8053756998852,[0.42],[-0.395],[1],[0],[0],[1.3487011000979692],['target'],508608,001,2024-10-07_19h45.51.291,visualsearch,2024.1.5,None,2024-10-07 19h45.57.161854 +0530,
93,0,93,0,252.849031599937,,252.80756930005737,10,252.849031599937,252.849031599937,0.022991500096395612,254.07058169995435,[0.48833333333333334],[0.03833333333333333],[1],[0],[0],[1.2400665001478046],['target'],508608,001,2024-10-07_19h45.51.291,visualsearch,2024.1.5,None,2024-10-07 19h45.57.161854 +0530,
94,0,94,0,254.13154669990763,,254.07348759984598,10,254.13154669990763,254.13154669990763,0.024280300131067634,255.46840239991434,[-0.20833333333333334],[0.16],[1],[0],[0],[1.3706827000714839],['target'],508608,001,2024-10-07_19h45.51.291,visualsearch,2024.1.5,None,2024-10-07 19h45.57.161854 +0530,
95,0,95,0,255.49739350005984,,255.47051119990647,5,255.49739350005984,255.49739350005984,0.01616859994828701,256.92050180002116,[0.115],[-0.08833333333333333],[1],[0],[0],[1.4340068001765758],['target'],508608,001,2024-10-07_19h45.51.291,visualsearch,2024.1.5,None,2024-10-07 19h45.57.161854 +0530,
96,0,96,0,256.9463802999817,,256.9230903000571,5,256.9463802999817,256.9463802999817,0.012939099920913577,257.8361345999874,[0.17],[0.07333333333333333],[1],[0],[0],[0.9001150999683887],['target'],508608,001,2024-10-07_19h45.51.291,visualsearch,2024.1.5,None,2024-10-07 19h45.57.161854 +0530,
97,0,97,0,257.86314400006086,,257.83818439999595,5,257.86314400006086,257.86314400006086,0.014645399991422892,258.91736679989845,[0.06666666666666667],[0.043333333333333335],[1],[0],[0],[1.0647152001038194],['target'],508608,001,2024-10-07_19h45.51.291,visualsearch,2024.1.5,None,2024-10-07 19h45.57.161854 +0530,
98,0,98,0,258.94457189994864,,258.91955540003255,5,258.94457189994864,258.94457189994864,0.013967500068247318,260.8330991999246,[0.11666666666666667],[-0.23833333333333334],[1],[0],[0],[1.8995566999074072],['target'],508608,001,2024-10-07_19h45.51.291,visualsearch,2024.1.5,None,2024-10-07 19h45.57.161854 +0530,
99,0,99,0,260.87687409995124,,260.83516949997284,10,260.87687409995124,260.87687409995124,0.02617680002003908,262.37970809987746,[0.35833333333333334],[0.01],[1],[0],[0],[1.5183681999333203],['target'],508608,001,2024-10-07_19h45.51.291,visualsearch,2024.1.5,None,2024-10-07 19h45.57.161854 +0530,
100,0,100,0,262.40977599984035,,262.38188100000843,5,262.40977599984035,262.40977599984035,0.011110600084066391,263.4797082999721,[0.28],[-0.12333333333333334],[1],[0],[0],[1.0870896999258548],['target'],508608,001,2024-10-07_19h45.51.291,visualsearch,2024.1.5,None,2024-10-07 19h45.57.161854 +0530,
101,0,101,0,263.5084522999823,,263.4818587999325,5,263.5084522999823,263.5084522999823,0.013129199855029583,264.8469811999239,[-0.325],[0.135],[1],[0],[0],[1.352007299894467],['target'],508608,001,2024-10-07_19h45.51.291,visualsearch,2024.1.5,None,2024-10-07 19h45.57.161854 +0530,
102,0,102,0,264.8747443999164,,264.84938049991615,5,264.8747443999164,264.8747443999164,0.011306900065392256,266.5447354000062,[-0.19333333333333333],[-0.37333333333333335],[1],[0],[0],[1.6840687000658363],['target'],508608,001,2024-10-07_19h45.51.291,visualsearch,2024.1.5,None,2024-10-07 19h45.57.161854 +0530,
103,0,103,0,266.5905375999864,,266.5468450000044,10,266.5905375999864,266.5905375999864,0.021285499911755323,268.20944450004026,[-0.33666666666666667],[0.06],[1],[0],[0],[1.6413932999130338],['target'],508608,001,2024-10-07_19h45.51.291,visualsearch,2024.1.5,None,2024-10-07 19h45.57.161854 +0530,
104,0,104,0,268.23889449983835,,268.2117140998598,5,268.23889449983835,268.23889449983835,0.016480299877002835,269.7123563999776,[0.12666666666666668],[-0.3433333333333333],[1],[0],[0],[1.484348100144416],['target'],508608,001,2024-10-07_19h45.51.291,visualsearch,2024.1.5,None,2024-10-07 19h45.57.161854 +0530,
105,0,105,0,269.7382795000449,,269.7148348998744,5,269.7382795000449,269.7382795000449,0.011325499974191189,271.4590693998616,[-0.4266666666666667],[-0.19333333333333333],[1],[0],[0],[1.733087999979034],['target'],508608,001,2024-10-07_19h45.51.291,visualsearch,2024.1.5,None,2024-10-07 19h45.57.161854 +0530,
106,0,106,0,271.5036613000557,,271.4614871998783,10,271.5036613000557,271.5036613000557,0.02572939987294376,273.4732929999009,[-0.265],[0.3983333333333333],[1],[0],[0],[1.9861338001210243],['target'],508608,001,2024-10-07_19h45.51.291,visualsearch,2024.1.5,None,2024-10-07 19h45.57.161854 +0530,
107,0,107,0,273.5024601998739,,273.47616810002364,5,273.5024601998739,273.5024601998739,0.012818099930882454,274.99221870000474,[0.35333333333333333],[-0.09],[1],[0],[0],[1.5033686000388116],['target'],508608,001,2024-10-07_19h45.51.291,visualsearch,2024.1.5,None,2024-10-07 19h45.57.161854 +0530,
108,0,108,0,275.01856320002116,,274.99519639997743,5,275.01856320002116,275.01856320002116,0.012794099980965257,276.30554919992574,[-0.28833333333333333],[-0.015],[1],[0],[0],[1.29781230003573],['target'],508608,001,2024-10-07_19h45.51.291,visualsearch,2024.1.5,None,2024-10-07 19h45.57.161854 +0530,
109,0,109,0,276.3340914999135,,276.30859739985317,5,276.3340914999135,276.3340914999135,0.013004899956285954,278.6212372998707,[0.05333333333333334],[0.07],[1],[0],[0],[2.2998361999634653],[],508608,001,2024-10-07_19h45.51.291,visualsearch,2024.1.5,None,2024-10-07 19h45.57.161854 +0530,
110,0,110,0,278.6490821999032,,278.62420660001226,5,278.6490821999032,278.6490821999032,0.015053499955683947,280.019841699861,[-0.3983333333333333],[0.07666666666666666],[1],[0],[0],[1.3813285001087934],['target'],508608,001,2024-10-07_19h45.51.291,visualsearch,2024.1.5,None,2024-10-07 19h45.57.161854 +0530,
111,0,111,0,280.048972300021,,280.0226131998934,5,280.048972300021,280.048972300021,0.011466699885204434,281.0373002998531,[-0.17166666666666666],[0.11833333333333333],[1],[0],[0],[1.002901100087911],['target'],508608,001,2024-10-07_19h45.51.291,visualsearch,2024.1.5,None,2024-10-07 19h45.57.161854 +0530,
112,0,112,0,281.06496599991806,,281.04024220001884,5,281.06496599991806,281.06496599991806,0.013258800143375993,282.18608470004983,[0.425],[0.4533333333333333],[1],[0],[0],[1.1328435000032187],['target'],508608,001,2024-10-07_19h45.51.291,visualsearch,2024.1.5,None,2024-10-07 19h45.57.161854 +0530,
113,0,113,0,282.2136899998877,,282.1886070999317,5,282.2136899998877,282.2136899998877,0.012605200055986643,284.21907379990444,[0.008333333333333333],[0.49333333333333335],[1],[0],[0],[2.017900099977851],['target'],508608,001,2024-10-07_19h45.51.291,visualsearch,2024.1.5,None,2024-10-07 19h45.57.161854 +0530,
114,0,114,0,284.2626020000316,,284.2217329000123,10,284.2626020000316,284.2626020000316,0.025675299810245633,285.53563389997,[-0.125],[0.42],[1],[0],[0],[1.2882787000853568],['target'],508608,001,2024-10-07_19h45.51.291,visualsearch,2024.1.5,None,2024-10-07 19h45.57.161854 +0530,
115,0,115,0,285.5620046998374,,285.53774489997886,5,285.5620046998374,285.5620046998374,0.01279380009509623,287.0510774999857,[0.056666666666666664],[0.008333333333333333],[1],[0],[0],[1.50049959984608],['target'],508608,001,2024-10-07_19h45.51.291,visualsearch,2024.1.5,None,2024-10-07 19h45.57.161854 +0530,
116,0,116,0,287.0775305998977,,287.05394380004145,5,287.0775305998977,287.0775305998977,0.011756299994885921,288.464983999962,[-0.41],[0.16666666666666666],[1],[0],[0],[1.3996373999398202],['target'],508608,001,2024-10-07_19h45.51.291,visualsearch,2024.1.5,None,2024-10-07 19h45.57.161854 +0530,
117,0,117,0,288.5094301998615,,288.46720469999127,10,288.5094301998615,288.5094301998615,0.026828000089153647,289.58028810005635,[-0.355],[0.21333333333333335],[1],[0],[0],[1.0862393998540938],['target'],508608,001,2024-10-07_19h45.51.291,visualsearch,2024.1.5,None,2024-10-07 19h45.57.161854 +0530,
118,0,118,0,289.62635739985853,,289.5829340000637,10,289.62635739985853,289.62635739985853,0.021226400043815374,291.34675469994545,[0.47833333333333333],[0.36666666666666664],[1],[0],[0],[1.7425579999107867],['target'],508608,001,2024-10-07_19h45.51.291,visualsearch,2024.1.5,None,2024-10-07 19h45.57.161854 +0530,
119,0,119,0,291.4080282000359,,291.34886769996956,10,291.4080282000359,291.4080282000359,0.023730099899694324,293.7106373999268,[-0.043333333333333335],[-0.03666666666666667],[1],[0],[0],[2.3380054999142885],['target'],508608,001,2024-10-07_19h45.51.291,visualsearch,2024.1.5,None,2024-10-07 19h45.57.161854 +0530,
120,0,120,0,293.73957989993505,,293.71354899997823,5,293.73957989993505,293.73957989993505,0.014147300040349364,294.9317075998988,[0.03666666666666667],[0.135],[1],[0],[0],[1.2040655999444425],['target'],508608,001,2024-10-07_19h45.51.291,visualsearch,2024.1.5,None,2024-10-07 19h45.57.161854 +0530,
121,0,121,0,294.9723394999746,,294.93392889993265,10,294.9723394999746,294.9723394999746,0.022955500055104494,296.1108192000538,[0.205],[0.2866666666666667],[1],[0],[0],[1.153451400110498],['target'],508608,001,2024-10-07_19h45.51.291,visualsearch,2024.1.5,None,2024-10-07 19h45.57.161854 +0530,
122,0,122,0,296.13844670006074,,296.11369769996963,5,296.13844670006074,296.13844670006074,0.011115700006484985,297.4292345000431,[-0.075],[-0.08166666666666667],[1],[0],[0],[1.3045606000814587],['target'],508608,001,2024-10-07_19h45.51.291,visualsearch,2024.1.5,None,2024-10-07 19h45.57.161854 +0530,
123,0,123,0,297.4707038998604,,297.43233079998754,10,297.4707038998604,297.4707038998604,0.021235499996691942,303.12163279997185,[0.27],[-0.08],[1],[0],[0],[5.668374100001529],[],508608,001,2024-10-07_19h45.51.291,visualsearch,2024.1.5,None,2024-10-07 19h45.57.161854 +0530,
124,0,124,0,303.16681619989686,,303.12456439994276,10,303.16681619989686,303.16681619989686,0.021171099971979856,304.23899760004133,[0.06],[0.21833333333333332],[1],[0],[0],[1.093359800055623],['target'],508608,001,2024-10-07_19h45.51.291,visualsearch,2024.1.5,None,2024-10-07 19h45.57.161854 +0530,
125,0,125,0,304.2996731000021,,304.24111080006696,10,304.2996731000021,304.2996731000021,0.02311740000732243,305.4691498999018,[0.175],[-0.19833333333333333],[1],[0],[0],[1.2045188997872174],['target'],508608,001,2024-10-07_19h45.51.291,visualsearch,2024.1.5,None,2024-10-07 19h45.57.161854 +0530,
126,0,126,0,305.53215039987117,,305.4713985999115,10,305.53215039987117,305.53215039987117,0.026638700161129236,308.8672813999001,[-0.40166666666666667],[0.09666666666666666],[1],[0],[0],[3.3692107000388205],['target'],508608,001,2024-10-07_19h45.51.291,visualsearch,2024.1.5,None,2024-10-07 19h45.57.161854 +0530,
127,0,127,0,308.91339819994755,,308.87068249983713,5,308.91339819994755,308.91339819994755,0.017548399977385998,311.8331404000055,[0.43833333333333335],[0.4683333333333333],[1],[0],[0],[2.9451117999851704],[],508608,001,2024-10-07_19h45.51.291,visualsearch,2024.1.5,None,2024-10-07 19h45.57.161854 +0530,
128,0,128,0,311.878107199911,,311.83518239995465,10,311.878107199911,311.878107199911,0.025979300029575825,314.33093509986065,[-0.3466666666666667],[-0.013333333333333334],[1],[0],[0],[2.469758899882436],['target'],508608,001,2024-10-07_19h45.51.291,visualsearch,2024.1.5,None,2024-10-07 19h45.57.161854 +0530,
129,0,129,0,314.36021019984037,,314.33309079986066,5,314.36021019984037,314.36021019984037,0.01127210003323853,315.56636910000816,[0.44166666666666665],[-0.11333333333333333],[1],[0],[0],[1.222174199996516],['target'],508608,001,2024-10-07_19h45.51.291,visualsearch,2024.1.5,None,2024-10-07 19h45.57.161854 +0530,
130,0,130,0,315.6089765999932,,315.56883120001294,10,315.6089765999932,315.6089765999932,0.020753900054842234,321.4096971000545,[0.056666666666666664],[-0.0033333333333333335],[1],[0],[0],[5.819507600041106],[],508608,001,2024-10-07_19h45.51.291,visualsearch,2024.1.5,None,2024-10-07 19h45.57.161854 +0530,
131,0,131,0,321.45541099994443,,321.4121383000165,10,321.45541099994443,321.45541099994443,0.021084300009533763,327.49214569991454,[-0.395],[-0.39666666666666667],[1],[0],[0],[6.058878199895844],['target'],508608,001,2024-10-07_19h45.51.291,visualsearch,2024.1.5,None,2024-10-07 19h45.57.161854 +0530,
132,0,132,0,327.55166230001487,,327.4949620999396,10,327.55166230001487,327.55166230001487,0.023457800038158894,330.1058165000286,[0.2816666666666667],[0.14166666666666666],[1],[0],[0],[2.5870844000019133],['target'],508608,001,2024-10-07_19h45.51.291,visualsearch,2024.1.5,None,2024-10-07 19h45.57.161854 +0530,
133,0,133,0,330.14945979998447,,330.1083760999609,5,330.14945979998447,330.14945979998447,0.01840200019069016,331.4069884000346,[0.49166666666666664],[0.17],[1],[0],[0],[1.2803078000433743],['target'],508608,001,2024-10-07_19h45.51.291,visualsearch,2024.1.5,None,2024-10-07 19h45.57.161854 +0530,
134,0,134,0,331.4324803999625,,331.41045699990354,5,331.4324803999625,331.4324803999625,0.01367939985357225,333.3522346999962,[-0.42833333333333334],[-0.27166666666666667],[1],[0],[0],[1.928210699930787],['target'],508608,001,2024-10-07_19h45.51.291,visualsearch,2024.1.5,None,2024-10-07 19h45.57.161854 +0530,
135,0,135,0,333.39787700003944,,333.3543263999745,10,333.39787700003944,333.39787700003944,0.02380800014361739,335.1703784998972,[0.315],[0.14],[1],[0],[0],[1.7922616000287235],[],508608,001,2024-10-07_19h45.51.291,visualsearch,2024.1.5,None,2024-10-07 19h45.57.161854 +0530,
136,0,136,0,335.19664380000904,,335.1748680998571,5,335.19664380000904,335.19664380000904,0.013220499968156219,336.9020235000644,[-0.5],[-0.43333333333333335],[1],[0],[0],[1.7144217998720706],['target'],508608,001,2024-10-07_19h45.51.291,visualsearch,2024.1.5,None,2024-10-07 19h45.57.161854 +0530,
137,0,137,0,336.9288381000515,,336.904187399894,5,336.9288381000515,336.9288381000515,0.01542759989388287,338.30107499985024,[-0.20833333333333334],[-0.2833333333333333],[1],[0],[0],[1.3813771000131965],['target'],508608,001,2024-10-07_19h45.51.291,visualsearch,2024.1.5,None,2024-10-07 19h45.57.161854 +0530,
138,0,138,0,338.32741019991226,,338.3034252000507,5,338.32741019991226,338.32741019991226,0.016784500097855926,339.316705300007,[-0.395],[-0.17833333333333334],[1],[0],[0],[0.9965130998753011],['target'],508608,001,2024-10-07_19h45.51.291,visualsearch,2024.1.5,None,2024-10-07 19h45.57.161854 +0530,
139,0,139,0,339.3440218998585,,339.3188300000038,5,339.3440218998585,339.3440218998585,0.011505200061947107,340.33197110006586,[0.245],[-0.10333333333333333],[1],[0],[0],[1.0018295999616385],['target'],508608,001,2024-10-07_19h45.51.291,visualsearch,2024.1.5,None,2024-10-07 19h45.57.161854 +0530,
140,0,140,0,340.3595410999842,,340.33496999996714,5,340.3595410999842,340.3595410999842,0.013896800111979246,341.43285209988244,[0.135],[-0.23833333333333334],[1],[0],[0],[1.0845931000076234],['target'],508608,001,2024-10-07_19h45.51.291,visualsearch,2024.1.5,None,2024-10-07 19h45.57.161854 +0530,
141,0,141,0,341.45959319989197,,341.43557680002414,5,341.45959319989197,341.45959319989197,0.012883099960163236,342.4150441000238,[0.2683333333333333],[-0.235],[1],[0],[0],[0.9665399000514299],['target'],508608,001,2024-10-07_19h45.51.291,visualsearch,2024.1.5,None,2024-10-07 19h45.57.161854 +0530,
142,0,142,0,342.44198299990967,,342.4178488999605,5,342.44198299990967,342.44198299990967,0.01505020004697144,343.711530999979,[0.22333333333333333],[0.255],[1],[0],[0],[1.2789402999915183],['target'],508608,001,2024-10-07_19h45.51.291,visualsearch,2024.1.5,None,2024-10-07 19h45.57.161854 +0530,
143,0,143,0,343.7411700000521,,343.71362349996343,5,343.7411700000521,343.7411700000521,0.013755799969658256,344.81128979986534,[-0.2783333333333333],[0.06333333333333334],[1],[0],[0],[1.0834621998947114],['target'],508608,001,2024-10-07_19h45.51.291,visualsearch,2024.1.5,None,2024-10-07 19h45.57.161854 +0530,
144,0,144,0,344.8570099999197,,344.8134139999747,10,344.8570099999197,344.8570099999197,0.022789999842643738,346.3802587999962,[0.24166666666666667],[0.30333333333333334],[1],[0],[0],[1.5439826999790967],['target'],508608,001,2024-10-07_19h45.51.291,visualsearch,2024.1.5,None,2024-10-07 19h45.57.161854 +0530,
145,0,145,0,346.4061391998548,,346.3824258998502,5,346.4061391998548,346.4061391998548,0.011212000157684088,349.74138779984787,[-0.4766666666666667],[0.41333333333333333],[1],[0],[0],[3.3479309999383986],['target'],508608,001,2024-10-07_19h45.51.291,visualsearch,2024.1.5,None,2024-10-07 19h45.57.161854 +0530,
146,0,146,0,349.77080609998666,,349.7440963999834,5,349.77080609998666,349.77080609998666,0.014139499980956316,351.35785329993814,[0.31666666666666665],[-0.06],[1],[0],[0],[1.5997800000477582],['target'],508608,001,2024-10-07_19h45.51.291,visualsearch,2024.1.5,None,2024-10-07 19h45.57.161854 +0530,
147,0,147,0,351.40344469994307,,351.3599862998817,10,351.40344469994307,351.40344469994307,0.0247447001747787,352.87219699984416,[0.02],[-0.40166666666666667],[1],[0],[0],[1.4876828000415117],['target'],508608,001,2024-10-07_19h45.51.291,visualsearch,2024.1.5,None,2024-10-07 19h45.57.161854 +0530,
148,0,148,0,352.93522850004956,,352.87434599990956,10,352.93522850004956,352.93522850004956,0.02414460014551878,360.15307939983904,[-0.051666666666666666],[-0.22166666666666668],[1],[0],[0],[7.2546430001966655],['target'],508608,001,2024-10-07_19h45.51.291,visualsearch,2024.1.5,None,2024-10-07 19h45.57.161854 +0530,
149,0,149,0,360.21461439994164,,360.15528059983626,10,360.21461439994164,360.21461439994164,0.024862400023266673,361.78264459990896,[-0.38166666666666665],[-0.19666666666666666],[1],[0],[0],[1.602669500047341],['target'],508608,001,2024-10-07_19h45.51.291,visualsearch,2024.1.5,None,2024-10-07 19h45.57.161854 +0530,
150,0,150,0,361.84662460000254,,361.7849915998522,10,361.84662460000254,361.84662460000254,0.022653300082311034,376.97392600006424,[-0.02],[0.025],[1],[0],[0],[15.166298000141978],[],508608,001,2024-10-07_19h45.51.291,visualsearch,2024.1.5,None,2024-10-07 19h45.57.161854 +0530,
151,0,151,0,377.0364901998546,,376.9766927000601,10,377.0364901998546,377.0364901998546,0.024130400037392974,380.5874713999219,[0.43166666666666664],[0.36833333333333335],[1],[0],[0],[3.5867182998917997],['target'],508608,001,2024-10-07_19h45.51.291,visualsearch,2024.1.5,None,2024-10-07 19h45.57.161854 +0530,
152,0,152,0,380.61819819989614,,380.59128339984454,5,380.61819819989614,380.61819819989614,0.01629930012859404,381.5901533998549,[0.26666666666666666],[0.35833333333333334],[1],[0],[0],[0.9828526999335736],['target'],508608,001,2024-10-07_19h45.51.291,visualsearch,2024.1.5,None,2024-10-07 19h45.57.161854 +0530,
153,0,153,0,381.63400899991393,,381.5928052999079,5,381.63400899991393,381.63400899991393,0.011756600113585591,382.85345879988745,[-0.285],[0.3383333333333333],[1],[0],[0],[1.2496553000528365],[],508608,001,2024-10-07_19h45.51.291,visualsearch,2024.1.5,None,2024-10-07 19h45.57.161854 +0530,
154,0,154,0,382.8999910999555,,382.855622000061,10,382.8999910999555,382.8999910999555,0.025677199941128492,385.1362848000135,[-0.04],[-0.24],[1],[0],[0],[2.255078899906948],['target'],508608,001,2024-10-07_19h45.51.291,visualsearch,2024.1.5,None,2024-10-07 19h45.57.161854 +0530,
155,0,155,0,385.16476939991117,,385.1385700998362,5,385.16476939991117,385.16476939991117,0.012824000092223287,386.8361581999343,[-0.165],[0.29],[1],[0],[0],[1.6849652000237256],['target'],508608,001,2024-10-07_19h45.51.291,visualsearch,2024.1.5,None,2024-10-07 19h45.57.161854 +0530,
156,0,156,0,386.89717560005374,,386.83883180003613,10,386.89717560005374,386.89717560005374,0.024639999959617853,387.78667199984193,[-0.12],[0.13666666666666666],[1],[0],[0],[0.9237301000393927],['target'],508608,001,2024-10-07_19h45.51.291,visualsearch,2024.1.5,None,2024-10-07 19h45.57.161854 +0530,
157,0,157,0,387.8465203999076,,387.7895609999541,10,387.8465203999076,387.8465203999076,0.028443099930882454,390.26692630001344,[0.09333333333333334],[-0.15333333333333332],[1],[0],[0],[2.449092000024393],[],508608,001,2024-10-07_19h45.51.291,visualsearch,2024.1.5,None,2024-10-07 19h45.57.161854 +0530,
158,0,158,0,390.3954819999635,,390.26907599996775,10,390.3954819999635,390.3954819999635,0.09743249998427927,393.49643249996006,[-0.31833333333333336],[0.42],[1],[0],[0],[3.129908900009468],['target'],508608,001,2024-10-07_19h45.51.291,visualsearch,2024.1.5,None,2024-10-07 19h45.57.161854 +0530,
159,0,159,0,393.52620829991065,,393.4994425000623,5,393.52620829991065,393.52620829991065,0.011572400107979774,395.3151978000533,[0.26666666666666666],[-0.3433333333333333],[1],[0],[0],[1.8042802000418305],['target'],508608,001,2024-10-07_19h45.51.291,visualsearch,2024.1.5,None,2024-10-07 19h45.57.161854 +0530,
160,0,160,0,395.34151599998586,,395.31750390003435,5,395.34151599998586,395.34151599998586,0.01134920003823936,397.9783042999916,[-0.115],[-0.056666666666666664],[1],[0],[0],[2.64910150016658],['target'],508608,001,2024-10-07_19h45.51.291,visualsearch,2024.1.5,None,2024-10-07 19h45.57.161854 +0530,
161,0,161,0,398.03968230006285,,397.98076849989593,10,398.03968230006285,398.03968230006285,0.02283500018529594,403.1074763999786,[0.205],[-0.105],[1],[0],[0],[5.103905900148675],['target'],508608,001,2024-10-07_19h45.51.291,visualsearch,2024.1.5,None,2024-10-07 19h45.57.161854 +0530,
162,0,162,0,403.17021789983846,,403.1103588999249,10,403.17021789983846,403.17021789983846,0.025215900037437677,405.3219018999953,[-0.47333333333333333],[0.035],[1],[0],[0],[2.18645490007475],['target'],508608,001,2024-10-07_19h45.51.291,visualsearch,2024.1.5,None,2024-10-07 19h45.57.161854 +0530,
163,0,163,0,405.35299409995787,,405.32475010002963,5,405.35299409995787,405.35299409995787,0.010292500024661422,406.45985949994065,[-0.028333333333333332],[0.3516666666666667],[1],[0],[0],[1.1248411000706255],['target'],508608,001,2024-10-07_19h45.51.291,visualsearch,2024.1.5,None,2024-10-07 19h45.57.161854 +0530,
164,0,164,0,406.51784439990297,,406.4621436998714,10,406.51784439990297,406.51784439990297,0.02618889999575913,410.91932230000384,[0.4716666666666667],[0.485],[1],[0],[0],[4.430975600145757],[],508608,001,2024-10-07_19h45.51.291,visualsearch,2024.1.5,None,2024-10-07 19h45.57.161854 +0530,
165,0,165,0,410.9487383000087,,410.92181509989314,5,410.9487383000087,410.9487383000087,0.010452999966219068,413.13550279987976,[0.35],[-0.12],[0],[0],[1],[2.2033971999771893],['target'],508608,001,2024-10-07_19h45.51.291,visualsearch,2024.1.5,None,2024-10-07 19h45.57.161854 +0530,
166,0,166,0,413.1639080999885,,413.1376560998615,5,413.1639080999885,413.1639080999885,0.013149600010365248,414.48365919990465,[0.30666666666666664],[0.32666666666666666],[1],[0],[0],[1.3330637000035495],['target'],508608,001,2024-10-07_19h45.51.291,visualsearch,2024.1.5,None,2024-10-07 19h45.57.161854 +0530,
167,0,167,0,414.5294406998437,,414.4857956999913,10,414.5294406998437,414.5294406998437,0.02720929984934628,416.73184859985486,[0.38333333333333336],[-0.23833333333333334],[1],[0],[0],[2.2190119998995215],['target'],508608,001,2024-10-07_19h45.51.291,visualsearch,2024.1.5,None,2024-10-07 19h45.57.161854 +0530,
168,0,168,0,416.79489169991575,,416.73400769988075,10,416.79489169991575,416.79489169991575,0.024780199863016605,421.2129414000083,[0.145],[0.25166666666666665],[1],[0],[0],[4.4539660001173615],['target'],508608,001,2024-10-07_19h45.51.291,visualsearch,2024.1.5,None,2024-10-07 19h45.57.161854 +0530,
169,0,169,0,421.24233919987455,,421.2158192000352,5,421.24233919987455,421.24233919987455,0.013590600108727813,422.2636106000282,[-0.015],[0.16],[1],[0],[0],[1.0343820999842137],['target'],508608,001,2024-10-07_19h45.51.291,visualsearch,2024.1.5,None,2024-10-07 19h45.57.161854 +0530,
170,0,170,0,422.30875399988145,,422.26659230003133,5,422.30875399988145,422.30875399988145,0.013341500191017985,424.16120680002496,[0.5016666666666667],[-0.2966666666666667],[1],[0],[0],[1.8812877000309527],['target'],508608,001,2024-10-07_19h45.51.291,visualsearch,2024.1.5,None,2024-10-07 19h45.57.161854 +0530,
171,0,171,0,424.2234042000491,,424.16452810005285,10,424.2234042000491,424.2234042000491,0.025875200051814318,427.044310499914,[0.041666666666666664],[0.4683333333333333],[1],[0],[0],[2.854112399974838],['target'],508608,001,2024-10-07_19h45.51.291,visualsearch,2024.1.5,None,2024-10-07 19h45.57.161854 +0530,
172,0,172,0,427.1049840999767,,427.0464466998819,10,427.1049840999767,427.1049840999767,0.023546600015833974,428.0433364000637,[-0.008333333333333333],[0.46],[1],[0],[0],[0.973382500000298],['target'],508608,001,2024-10-07_19h45.51.291,visualsearch,2024.1.5,None,2024-10-07 19h45.57.161854 +0530,
173,0,173,0,428.07092009996995,,428.04560369998217,5,428.07092009996995,428.07092009996995,0.011248899856582284,429.62407210003585,[-0.205],[-0.08166666666666667],[1],[0],[0],[1.5674364999867976],['target'],508608,001,2024-10-07_19h45.51.291,visualsearch,2024.1.5,None,2024-10-07 19h45.57.161854 +0530,
174,0,174,0,429.6533734998666,,429.6261918998789,5,429.6533734998666,429.6533734998666,0.014409699942916632,434.33721719984896,[-0.08166666666666667],[-0.395],[0],[0],[1],[4.696681800065562],[],508608,001,2024-10-07_19h45.51.291,visualsearch,2024.1.5,None,2024-10-07 19h45.57.161854 +0530,
175,0,175,0,434.38356449990533,,434.33962400001474,5,434.38356449990533,434.38356449990533,0.013307700166478753,435.7052245999221,[-0.31333333333333335],[0.31166666666666665],[1],[0],[0],[1.352493200218305],['target'],508608,001,2024-10-07_19h45.51.291,visualsearch,2024.1.5,None,2024-10-07 19h45.57.161854 +0530,
176,0,176,0,435.7491272999905,,435.7078515999019,10,435.7491272999905,435.7491272999905,0.023980099940672517,437.6701201000251,[0.3233333333333333],[0.27166666666666667],[1],[0],[0],[1.938269800040871],['target'],508608,001,2024-10-07_19h45.51.291,visualsearch,2024.1.5,None,2024-10-07 19h45.57.161854 +0530,
177,0,177,0,437.7144066998735,,437.67220809985884,10,437.7144066998735,437.7144066998735,0.02143450011499226,439.08487649983726,[0.425],[-0.14666666666666667],[1],[0],[0],[1.3911916001234204],['target'],508608,001,2024-10-07_19h45.51.291,visualsearch,2024.1.5,None,2024-10-07 19h45.57.161854 +0530,
178,0,178,0,439.11417989991605,,439.0880837999284,5,439.11417989991605,439.11417989991605,0.01261430000886321,440.5837552999146,[-0.39666666666666667],[0.016666666666666666],[1],[0],[0],[1.4833013000898063],['target'],508608,001,2024-10-07_19h45.51.291,visualsearch,2024.1.5,None,2024-10-07 19h45.57.161854 +0530,
179,0,179,0,440.62961909989826,,440.58633079985157,10,440.62961909989826,440.62961909989826,0.026778699830174446,442.5171488998458,[-0.051666666666666666],[-0.34833333333333333],[1],[0],[0],[1.9046465000137687],['target'],508608,001,2024-10-07_19h45.51.291,visualsearch,2024.1.5,None,2024-10-07 19h45.57.161854 +0530,
180,0,180,0,442.57864439999685,,442.51983770006336,10,442.57864439999685,442.57864439999685,0.022911699954420328,444.78190910001285,[-0.05333333333333334],[0.4166666666666667],[1],[0],[0],[2.2390432998072356],['target'],508608,001,2024-10-07_19h45.51.291,visualsearch,2024.1.5,None,2024-10-07 19h45.57.161854 +0530,
181,0,181,0,444.8105484000407,,444.7840589999687,5,444.8105484000407,444.8105484000407,0.010129400063306093,446.19953159987926,[0.32666666666666666],[-0.13166666666666665],[1],[0],[0],[1.405354900052771],['target'],508608,001,2024-10-07_19h45.51.291,visualsearch,2024.1.5,None,2024-10-07 19h45.57.161854 +0530,
182,0,182,0,446.2428051000461,,446.2026269999333,5,446.2428051000461,446.2428051000461,0.012132500065490603,447.4626158999745,[0.15666666666666668],[0.34833333333333333],[1],[0],[0],[1.2482211999595165],['target'],508608,001,2024-10-07_19h45.51.291,visualsearch,2024.1.5,None,2024-10-07 19h45.57.161854 +0530,
183,0,183,0,447.491569200065,,447.4656139998697,5,447.491569200065,447.491569200065,0.015102500095963478,449.6151423000265,[0.43],[-0.365],[1],[0],[0],[2.134616499999538],['target'],508608,001,2024-10-07_19h45.51.291,visualsearch,2024.1.5,None,2024-10-07 19h45.57.161854 +0530,
184,0,184,0,449.65730730001815,,449.61721140006557,10,449.65730730001815,449.65730730001815,0.020879900082945824,451.04450309998356,[0.245],[0.21166666666666667],[1],[0],[0],[1.406528899911791],['target'],508608,001,2024-10-07_19h45.51.291,visualsearch,2024.1.5,None,2024-10-07 19h45.57.161854 +0530,
185,0,185,0,451.10634699999355,,451.0465905999299,10,451.10634699999355,451.10634699999355,0.021668999921530485,457.4215993999969,[-0.155],[0.47],[1],[0],[0],[6.353321600006893],['target'],508608,001,2024-10-07_19h45.51.291,visualsearch,2024.1.5,None,2024-10-07 19h45.57.161854 +0530,
186,0,186,0,457.45229050004855,,457.4239959998522,5,457.45229050004855,457.45229050004855,0.0107744000852108,458.7401157000568,[0.09833333333333333],[0.11666666666666667],[1],[0],[0],[1.3055703998543322],['target'],508608,001,2024-10-07_19h45.51.291,visualsearch,2024.1.5,None,2024-10-07 19h45.57.161854 +0530,
187,0,187,0,458.7844183999114,,458.74224479985423,5,458.7844183999114,458.7844183999114,0.0139853002037853,460.0221100000199,[0.30666666666666664],[0.45166666666666666],[1],[0],[0],[1.2660459999460727],['target'],508608,001,2024-10-07_19h45.51.291,visualsearch,2024.1.5,None,2024-10-07 19h45.57.161854 +0530,
188,0,188,0,460.0670524998568,,460.0244972000364,5,460.0670524998568,460.0670524998568,0.013342799851670861,461.50462899985723,[0.18833333333333332],[-0.30666666666666664],[1],[0],[0],[1.4667704000603408],['target'],508608,001,2024-10-07_19h45.51.291,visualsearch,2024.1.5,None,2024-10-07 19h45.57.161854 +0530,
189,0,189,0,461.53303919988684,,461.5071101000067,5,461.53303919988684,461.53303919988684,0.01137910014949739,463.0207745998632,[0.06166666666666667],[0.3466666666666667],[1],[0],[0],[1.502250999910757],['target'],508608,001,2024-10-07_19h45.51.291,visualsearch,2024.1.5,None,2024-10-07 19h45.57.161854 +0530,
190,0,190,0,463.0650367999915,,463.02287769992836,10,463.0650367999915,463.0650367999915,0.025006999960169196,464.3013198999688,[0.37833333333333335],[-0.155],[1],[0],[0],[1.2535490000154823],['target'],508608,001,2024-10-07_19h45.51.291,visualsearch,2024.1.5,None,2024-10-07 19h45.57.161854 +0530,
191,0,191,0,464.3309975999873,,464.3034602999687,5,464.3309975999873,464.3309975999873,0.012225100072100759,465.66911430004984,[0.4216666666666667],[-0.041666666666666664],[1],[0],[0],[1.3535877000540495],['target'],508608,001,2024-10-07_19h45.51.291,visualsearch,2024.1.5,None,2024-10-07 19h45.57.161854 +0530,
192,0,192,0,465.7135075998958,,465.67132449988276,10,465.7135075998958,465.7135075998958,0.02401829999871552,470.348014799878,[-0.45166666666666666],[0.49],[1],[0],[0],[4.6528512998484075],['target'],508608,001,2024-10-07_19h45.51.291,visualsearch,2024.1.5,None,2024-10-07 19h45.57.161854 +0530,
193,0,193,0,470.41061969986185,,470.3501593999099,10,470.41061969986185,470.41061969986185,0.026719200192019343,478.6590568998363,[-0.47333333333333333],[-0.47],[1],[0],[0],[8.282158199930564],[],508608,001,2024-10-07_19h45.51.291,visualsearch,2024.1.5,None,2024-10-07 19h45.57.161854 +0530,
194,0,194,0,478.722112899879,,478.66117259999737,10,478.722112899879,478.722112899879,0.02199869998730719,480.4260919999797,[0.075],[0.12666666666666668],[1],[0],[0],[1.7429536001291126],['target'],508608,001,2024-10-07_19h45.51.291,visualsearch,2024.1.5,None,2024-10-07 19h45.57.161854 +0530,
195,0,195,0,480.48793639987707,,480.42839969997294,10,480.48793639987707,480.48793639987707,0.019921200117096305,496.0306307000574,[0.0],[0.013333333333333334],[1],[0],[0],[15.582361000124365],[],508608,001,2024-10-07_19h45.51.291,visualsearch,2024.1.5,None,2024-10-07 19h45.57.161854 +0530,
196,0,196,0,496.0611010999419,,496.0327993000392,5,496.0611010999419,496.0611010999419,0.010134699987247586,497.28447019984014,[0.21],[0.39666666666666667],[1],[0],[0],[1.2415464001242071],['target'],508608,001,2024-10-07_19h45.51.291,visualsearch,2024.1.5,None,2024-10-07 19h45.57.161854 +0530,
197,0,197,0,497.31003029993735,,497.2871145999525,5,497.31003029993735,497.31003029993735,0.014026000164449215,498.48423149995506,[-0.07333333333333333],[0.22],[1],[0],[0],[1.1831479000393301],['target'],508608,001,2024-10-07_19h45.51.291,visualsearch,2024.1.5,None,2024-10-07 19h45.57.161854 +0530,
198,0,198,0,498.51003609993495,,498.48680429998785,5,498.51003609993495,498.51003609993495,0.013568599941208959,499.52973810001276,[0.056666666666666664],[0.31666666666666665],[1],[0],[0],[1.029468399938196],['target'],508608,001,2024-10-07_19h45.51.291,visualsearch,2024.1.5,None,2024-10-07 19h45.57.161854 +0530,
199,0,199,0,499.5590373999439,,499.5318040000275,5,499.5590373999439,499.5590373999439,0.011598800076171756,500.53233619988896,[0.16833333333333333],[0.33],[1],[0],[0],[0.9890725999139249],['target'],508608,001,2024-10-07_19h45.51.291,visualsearch,2024.1.5,None,2024-10-07 19h45.57.161854 +0530,
