trials.thisRepN,trials.thisTrialN,trials.thisN,trials.thisIndex,thisRow.t,notes,trial.started,num_distr,fixation.started,target.started,mouse.started,trial.stopped,mouse.x,mouse.y,mouse.leftButton,mouse.midButton,mouse.rightButton,mouse.time,mouse.clicked_name,participant,session,date,expName,psychopyVersion,frameRate,expStart,
0,0,0,0,0.04382560006342828,,0.015209600096568465,5,0.04382560006342828,0.04382560006342828,0.02636759984306991,2.548489399952814,[0.41333333333333333],[-0.03166666666666667],[1],[0],[0],[2.5215267001185566],['target'],534755,001,2024-10-07_20h03.29.800,visualsearch,2024.1.5,None,2024-10-07 20h03.35.407349 +0530,
1,0,1,0,2.5925306000281125,,2.551994899986312,10,2.5925306000281125,2.5925306000281125,0.025873699923977256,4.161954700015485,[-0.07],[0.41],[1],[0],[0],[1.5841558000538498],['target'],534755,001,2024-10-07_20h03.29.800,visualsearch,2024.1.5,None,2024-10-07 20h03.35.407349 +0530,
2,0,2,0,4.2086718999780715,,4.16408390016295,10,4.2086718999780715,4.2086718999780715,0.02309400006197393,5.393516800133511,[0.13333333333333333],[-0.11],[1],[0],[0],[1.206347200088203],['target'],534755,001,2024-10-07_20h03.29.800,visualsearch,2024.1.5,None,2024-10-07 20h03.35.407349 +0530,
3,0,3,0,5.44039100012742,,5.39630650007166,10,5.44039100012742,5.44039100012742,0.023312499979510903,9.141605900134891,[0.4633333333333333],[-0.38],[1],[0],[0],[3.7224688997957855],['target'],534755,001,2024-10-07_20h03.29.800,visualsearch,2024.1.5,None,2024-10-07 20h03.35.407349 +0530,
4,0,4,0,9.171615300001577,,9.144843599991873,5,9.171615300001577,9.171615300001577,0.01118269981816411,10.527166200103238,[-0.2833333333333333],[0.3383333333333333],[1],[0],[0],[1.371379200136289],['target'],534755,001,2024-10-07_20h03.29.800,visualsearch,2024.1.5,None,2024-10-07 20h03.35.407349 +0530,
5,0,5,0,10.570417399983853,,10.529272499959916,10,10.570417399983853,10.570417399983853,0.020922800060361624,12.641242400044575,[-0.20166666666666666],[-0.19666666666666666],[1],[0],[0],[2.0911262999288738],['target'],534755,001,2024-10-07_20h03.29.800,visualsearch,2024.1.5,None,2024-10-07 20h03.35.407349 +0530,
6,0,6,0,12.685739800101146,,12.64355339994654,10,12.685739800101146,12.685739800101146,0.023432699963450432,14.007929400075227,[0.19166666666666668],[-0.06],[1],[0],[0],[1.3410404999740422],['target'],534755,001,2024-10-07_20h03.29.800,visualsearch,2024.1.5,None,2024-10-07 20h03.35.407349 +0530,
7,0,7,0,14.035280500072986,,14.01014110003598,5,14.035280500072986,14.035280500072986,0.011457700049504638,20.06889250013046,[-0.0033333333333333335],[0.045],[1],[0],[0],[6.047497000079602],[],534755,001,2024-10-07_20h03.29.800,visualsearch,2024.1.5,None,2024-10-07 20h03.35.407349 +0530,
8,0,8,0,20.114734000060707,,20.071074800100178,10,20.114734000060707,20.114734000060707,0.02405690005980432,21.171333899954334,[0.21666666666666667],[0.045],[1],[0],[0],[1.0762479999102652],['target'],534755,001,2024-10-07_20h03.29.800,visualsearch,2024.1.5,None,2024-10-07 20h03.35.407349 +0530,
9,0,9,0,21.214171099942178,,21.17479049996473,10,21.214171099942178,21.214171099942178,0.023899500025436282,24.282797400141135,[-0.16333333333333333],[-0.14666666666666667],[1],[0],[0],[3.0842396998777986],['target'],534755,001,2024-10-07_20h03.29.800,visualsearch,2024.1.5,None,2024-10-07 20h03.35.407349 +0530,
10,0,10,0,24.311645000008866,,24.286785800009966,5,24.311645000008866,24.311645000008866,0.013622600119560957,25.34988380013965,[-0.23833333333333334],[-0.31833333333333336],[1],[0],[0],[1.0505389000754803],['target'],534755,001,2024-10-07_20h03.29.800,visualsearch,2024.1.5,None,2024-10-07 20h03.35.407349 +0530,
11,0,11,0,25.394966500112787,,25.35276190005243,10,25.394966500112787,25.394966500112787,0.024524700129404664,27.812325600069016,[0.11166666666666666],[0.43333333333333335],[1],[0],[0],[2.4355448000133038],['target'],534755,001,2024-10-07_20h03.29.800,visualsearch,2024.1.5,None,2024-10-07 20h03.35.407349 +0530,
12,0,12,0,27.85915690008551,,27.814698199974373,10,27.85915690008551,27.85915690008551,0.025448399828746915,29.129363200161606,[0.2966666666666667],[0.15666666666666668],[1],[0],[0],[1.2891864001285285],['target'],534755,001,2024-10-07_20h03.29.800,visualsearch,2024.1.5,None,2024-10-07 20h03.35.407349 +0530,
13,0,13,0,29.15874640014954,,29.132073200074956,5,29.15874640014954,29.15874640014954,0.01183830015361309,30.382456900086254,[0.24166666666666667],[-0.31833333333333336],[1],[0],[0],[1.238531099865213],['target'],534755,001,2024-10-07_20h03.29.800,visualsearch,2024.1.5,None,2024-10-07 20h03.35.407349 +0530,
14,0,14,0,30.408283700002357,,30.384560100035742,5,30.408283700002357,30.408283700002357,0.011202699970453978,31.8110430999659,[-0.41333333333333333],[-0.07666666666666666],[1],[0],[0],[1.415454400004819],['target'],534755,001,2024-10-07_20h03.29.800,visualsearch,2024.1.5,None,2024-10-07 20h03.35.407349 +0530,
15,0,15,0,31.873788400087506,,31.813493800116703,10,31.873788400087506,31.873788400087506,0.02647190005518496,33.02661870000884,[-0.07666666666666666],[0.19666666666666666],[1],[0],[0],[1.1868781000375748],['target'],534755,001,2024-10-07_20h03.29.800,visualsearch,2024.1.5,None,2024-10-07 20h03.35.407349 +0530,
16,0,16,0,33.05585990007967,,33.02879839995876,5,33.05585990007967,33.05585990007967,0.013852499891072512,34.04523400007747,[0.25333333333333335],[0.17166666666666666],[1],[0],[0],[1.0026520998217165],['target'],534755,001,2024-10-07_20h03.29.800,visualsearch,2024.1.5,None,2024-10-07 20h03.35.407349 +0530,
17,0,17,0,34.07271090010181,,34.047352500027046,5,34.07271090010181,34.07271090010181,0.011194100137799978,35.243340000044554,[-0.08166666666666667],[0.04833333333333333],[1],[0],[0],[1.1847594000864774],['target'],534755,001,2024-10-07_20h03.29.800,visualsearch,2024.1.5,None,2024-10-07 20h03.35.407349 +0530,
18,0,18,0,35.28919279994443,,35.24621090013534,10,35.28919279994443,35.28919279994443,0.021333400160074234,37.541835700161755,[-0.4116666666666667],[-0.20166666666666666],[1],[0],[0],[2.274336899863556],['target'],534755,001,2024-10-07_20h03.29.800,visualsearch,2024.1.5,None,2024-10-07 20h03.35.407349 +0530,
19,0,19,0,37.60361450002529,,37.54401049995795,10,37.60361450002529,37.60361450002529,0.024099400034174323,46.83574020001106,[-0.24833333333333332],[-0.385],[1],[0],[0],[9.267559499945492],['target'],534755,001,2024-10-07_20h03.29.800,visualsearch,2024.1.5,None,2024-10-07 20h03.35.407349 +0530,
20,0,20,0,46.89759670011699,,46.83786440012045,10,46.89759670011699,46.89759670011699,0.020787000190466642,48.399506099987775,[-0.4216666666666667],[0.18333333333333332],[1],[0],[0],[1.540565200150013],['target'],534755,001,2024-10-07_20h03.29.800,visualsearch,2024.1.5,None,2024-10-07 20h03.35.407349 +0530,
21,0,21,0,48.463277500122786,,48.40210870001465,10,48.463277500122786,48.463277500122786,0.024179999949410558,52.4965715999715,[0.46],[-0.17666666666666667],[1],[0],[0],[4.070351799950004],['target'],534755,001,2024-10-07_20h03.29.800,visualsearch,2024.1.5,None,2024-10-07 20h03.35.407349 +0530,
22,0,22,0,52.528004500083625,,52.49883699999191,5,52.528004500083625,52.528004500083625,0.010560499969869852,54.232308899983764,[-0.2833333333333333],[0.2783333333333333],[1],[0],[0],[1.7229747001547366],['target'],534755,001,2024-10-07_20h03.29.800,visualsearch,2024.1.5,None,2024-10-07 20h03.35.407349 +0530,
23,0,23,0,54.27603409998119,,54.23463850002736,10,54.27603409998119,54.27603409998119,0.022452899953350425,58.87610290013254,[0.3466666666666667],[0.4716666666666667],[1],[0],[0],[4.619193000020459],['target'],534755,001,2024-10-07_20h03.29.800,visualsearch,2024.1.5,None,2024-10-07 20h03.35.407349 +0530,
24,0,24,0,58.92264600005001,,58.87824400002137,10,58.92264600005001,58.92264600005001,0.024466500151902437,60.06178770004772,[0.36666666666666664],[0.12166666666666667],[1],[0],[0],[1.1589252999983728],['target'],534755,001,2024-10-07_20h03.29.800,visualsearch,2024.1.5,None,2024-10-07 20h03.35.407349 +0530,
25,0,25,0,60.08915559994057,,60.06564060016535,5,60.08915559994057,60.08915559994057,0.015118899988010526,61.893455300014466,[-0.29],[0.3883333333333333],[1],[0],[0],[1.812908299965784],['target'],534755,001,2024-10-07_20h03.29.800,visualsearch,2024.1.5,None,2024-10-07 20h03.35.407349 +0530,
26,0,26,0,61.92082260013558,,61.895579900126904,5,61.92082260013558,61.92082260013558,0.013082199962809682,63.22684420016594,[0.49166666666666664],[0.115],[1],[0],[0],[1.3180989001411945],['target'],534755,001,2024-10-07_20h03.29.800,visualsearch,2024.1.5,None,2024-10-07 20h03.35.407349 +0530,
27,0,27,0,63.28661870001815,,63.22933240002021,10,63.28661870001815,63.28661870001815,0.027140199905261397,64.80894799996167,[0.0016666666666666668],[0.09833333333333333],[1],[0],[0],[1.552278800169006],['target'],534755,001,2024-10-07_20h03.29.800,visualsearch,2024.1.5,None,2024-10-07 20h03.35.407349 +0530,
28,0,28,0,64.83620160003193,,64.8110641001258,5,64.83620160003193,64.83620160003193,0.011874299962073565,65.99059880012646,[-0.13833333333333334],[0.34],[1],[0],[0],[1.1671507998835295],['target'],534755,001,2024-10-07_20h03.29.800,visualsearch,2024.1.5,None,2024-10-07 20h03.35.407349 +0530,
29,0,29,0,66.03500990010798,,65.99307480012067,10,66.03500990010798,66.03500990010798,0.02716639987193048,67.9380964001175,[-0.26],[0.21666666666666667],[1],[0],[0],[1.918048899853602],['target'],534755,001,2024-10-07_20h03.29.800,visualsearch,2024.1.5,None,2024-10-07 20h03.35.407349 +0530,
30,0,30,0,67.9669608999975,,67.94028570014052,5,67.9669608999975,67.9669608999975,0.013377700001001358,69.34328230004758,[-0.21833333333333332],[0.105],[1],[0],[0],[1.3895703998859972],['target'],534755,001,2024-10-07_20h03.29.800,visualsearch,2024.1.5,None,2024-10-07 20h03.35.407349 +0530,
31,0,31,0,69.38327680015936,,69.34571370016783,10,69.38327680015936,69.38327680015936,0.021454100031405687,71.30121590010822,[0.095],[0.25333333333333335],[1],[0],[0],[1.9343836999032646],['target'],534755,001,2024-10-07_20h03.29.800,visualsearch,2024.1.5,None,2024-10-07 20h03.35.407349 +0530,
32,0,32,0,71.33165029995143,,71.30342350015417,5,71.33165029995143,71.33165029995143,0.014136800076812506,73.76993559999391,[-0.12666666666666668],[0.48833333333333334],[1],[0],[0],[2.4525612997822464],['target'],534755,001,2024-10-07_20h03.29.800,visualsearch,2024.1.5,None,2024-10-07 20h03.35.407349 +0530,
33,0,33,0,73.79704410000704,,73.77213419997133,5,73.79704410000704,73.79704410000704,0.013975299894809723,75.08353230007924,[-0.495],[-0.11333333333333333],[1],[0],[0],[1.2976309000514448],['target'],534755,001,2024-10-07_20h03.29.800,visualsearch,2024.1.5,None,2024-10-07 20h03.35.407349 +0530,
34,0,34,0,75.11245939997025,,75.0856501001399,5,75.11245939997025,75.11245939997025,0.014148399932309985,76.21812960016541,[-0.39166666666666666],[0.245],[1],[0],[0],[1.1185014999937266],['target'],534755,001,2024-10-07_20h03.29.800,visualsearch,2024.1.5,None,2024-10-07 20h03.35.407349 +0530,
35,0,35,0,76.24538130010478,,76.22038420010358,5,76.24538130010478,76.24538130010478,0.012987799942493439,77.81641500000842,[-0.45],[-0.3933333333333333],[1],[0],[0],[1.5827757997903973],['target'],534755,001,2024-10-07_20h03.29.800,visualsearch,2024.1.5,None,2024-10-07 20h03.35.407349 +0530,
36,0,36,0,77.84420750010759,,77.81893930002116,5,77.84420750010759,77.84420750010759,0.01317170006223023,79.08246419997886,[0.27],[0.15666666666666668],[1],[0],[0],[1.2502876999787986],['target'],534755,001,2024-10-07_20h03.29.800,visualsearch,2024.1.5,None,2024-10-07 20h03.35.407349 +0530,
37,0,37,0,79.1264683001209,,79.08489680010825,10,79.1264683001209,79.1264683001209,0.024022799916565418,80.46566320001148,[-0.31833333333333336],[0.19333333333333333],[1],[0],[0],[1.3570600000675768],['target'],534755,001,2024-10-07_20h03.29.800,visualsearch,2024.1.5,None,2024-10-07 20h03.35.407349 +0530,
38,0,38,0,80.49242989998311,,80.46787080005743,5,80.49242989998311,80.49242989998311,0.013667100109159946,81.39847080013715,[-0.16],[0.21833333333333332],[1],[0],[0],[0.9168223000597209],['target'],534755,001,2024-10-07_20h03.29.800,visualsearch,2024.1.5,None,2024-10-07 20h03.35.407349 +0530,
39,0,39,0,81.4419329999946,,81.40096700005233,10,81.4419329999946,81.4419329999946,0.022988200187683105,85.21298770001158,[0.27666666666666667],[0.475],[1],[0],[0],[3.789143699919805],['target'],534755,001,2024-10-07_20h03.29.800,visualsearch,2024.1.5,None,2024-10-07 20h03.35.407349 +0530,
40,0,40,0,85.27305720001459,,85.21537800016813,10,85.27305720001459,85.27305720001459,0.02503050002269447,87.07464090012945,[-0.31666666666666665],[-0.041666666666666664],[1],[0],[0],[1.83441839995794],['target'],534755,001,2024-10-07_20h03.29.800,visualsearch,2024.1.5,None,2024-10-07 20h03.35.407349 +0530,
41,0,41,0,87.10543829994276,,87.0770024000667,5,87.10543829994276,87.10543829994276,0.01548999990336597,88.52839810005389,[-0.006666666666666667],[-0.15166666666666667],[1],[0],[0],[1.4359438000246882],['target'],534755,001,2024-10-07_20h03.29.800,visualsearch,2024.1.5,None,2024-10-07 20h03.35.407349 +0530,
42,0,42,0,88.55472400016151,,88.53105790005066,5,88.55472400016151,88.55472400016151,0.010798800038173795,91.20795940002427,[0.006666666666666667],[-0.016666666666666666],[1],[0],[0],[2.6656580998096615],[],534755,001,2024-10-07_20h03.29.800,visualsearch,2024.1.5,None,2024-10-07 20h03.35.407349 +0530,
43,0,43,0,91.2526054000482,,91.21095980005339,10,91.2526054000482,91.2526054000482,0.022401100024580956,94.07032800000161,[-0.085],[-0.36333333333333334],[1],[0],[0],[2.837226500036195],['target'],534755,001,2024-10-07_20h03.29.800,visualsearch,2024.1.5,None,2024-10-07 20h03.35.407349 +0530,
44,0,44,0,94.1176509000361,,94.0725360000506,10,94.1176509000361,94.1176509000361,0.021878100000321865,100.37142050010152,[0.10833333333333334],[0.46166666666666667],[1],[0],[0],[6.277026999974623],[],534755,001,2024-10-07_20h03.29.800,visualsearch,2024.1.5,None,2024-10-07 20h03.35.407349 +0530,
45,0,45,0,100.39701310009696,,100.37377079995349,5,100.39701310009696,100.39701310009696,0.010967199923470616,101.85212430008687,[0.115],[0.135],[1],[0],[0],[1.4673722998704761],['target'],534755,001,2024-10-07_20h03.29.800,visualsearch,2024.1.5,None,2024-10-07 20h03.35.407349 +0530,
46,0,46,0,101.89589129993692,,101.8555139999371,10,101.89589129993692,101.89589129993692,0.022968400036916137,105.48399550002068,[0.08833333333333333],[-0.31166666666666665],[1],[0],[0],[3.6062268000096083],['target'],534755,001,2024-10-07_20h03.29.800,visualsearch,2024.1.5,None,2024-10-07 20h03.35.407349 +0530,
47,0,47,0,105.52739740000106,,105.4862975999713,10,105.52739740000106,105.52739740000106,0.0225615999661386,110.62992780003697,[-0.19333333333333333],[0.49333333333333335],[1],[0],[0],[5.121075700037181],[],534755,001,2024-10-07_20h03.29.800,visualsearch,2024.1.5,None,2024-10-07 20h03.35.407349 +0530,
48,0,48,0,110.65703830006532,,110.63260110002011,5,110.65703830006532,110.65703830006532,0.012712399940937757,112.26192670012824,[-0.2],[0.49166666666666664],[1],[0],[0],[1.6168315999675542],[],534755,001,2024-10-07_20h03.29.800,visualsearch,2024.1.5,None,2024-10-07 20h03.35.407349 +0530,
49,0,49,0,112.30605090013705,,112.264877300011,10,112.30605090013705,112.30605090013705,0.026158699998632073,113.29266620008275,[0.018333333333333333],[0.31],[1],[0],[0],[1.0015831999480724],['target'],534755,001,2024-10-07_20h03.29.800,visualsearch,2024.1.5,None,2024-10-07 20h03.35.407349 +0530,
50,0,50,0,113.32229900010861,,113.29559190012515,5,113.32229900010861,113.32229900010861,0.011023800121620297,114.89327759994194,[-0.021666666666666667],[-0.39666666666666667],[1],[0],[0],[1.586941999848932],['target'],534755,001,2024-10-07_20h03.29.800,visualsearch,2024.1.5,None,2024-10-07 20h03.35.407349 +0530,
51,0,51,0,114.93868799996562,,114.89625810016878,10,114.93868799996562,114.93868799996562,0.025718400022014976,116.29070560005493,[-0.14166666666666666],[-0.245],[1],[0],[0],[1.3681907998397946],['target'],534755,001,2024-10-07_20h03.29.800,visualsearch,2024.1.5,None,2024-10-07 20h03.35.407349 +0530,
52,0,52,0,116.31991389999166,,116.29348969995044,5,116.31991389999166,116.31991389999166,0.013231399934738874,117.6099600000307,[0.36833333333333335],[0.235],[1],[0],[0],[1.3033898998983204],['target'],534755,001,2024-10-07_20h03.29.800,visualsearch,2024.1.5,None,2024-10-07 20h03.35.407349 +0530,
53,0,53,0,117.65312310005538,,117.61226930003613,10,117.65312310005538,117.65312310005538,0.021143099991604686,120.02098200004548,[-0.2966666666666667],[-0.225],[1],[0],[0],[2.387457199860364],['target'],534755,001,2024-10-07_20h03.29.800,visualsearch,2024.1.5,None,2024-10-07 20h03.35.407349 +0530,
54,0,54,0,120.06757840001956,,120.02325009997003,10,120.06757840001956,120.06757840001956,0.02104180003516376,122.58602100005373,[0.23666666666666666],[-0.06833333333333333],[1],[0],[0],[2.5416313000023365],['target'],534755,001,2024-10-07_20h03.29.800,visualsearch,2024.1.5,None,2024-10-07 20h03.35.407349 +0530,
55,0,55,0,122.64939850009978,,122.58832340012304,10,122.64939850009978,122.64939850009978,0.02391440002247691,125.28553019999526,[0.41333333333333333],[0.3333333333333333],[1],[0],[0],[2.6734137998428196],['target'],534755,001,2024-10-07_20h03.29.800,visualsearch,2024.1.5,None,2024-10-07 20h03.35.407349 +0530,
56,0,56,0,125.34771340014413,,125.28773630014621,10,125.34771340014413,125.34771340014413,0.021660699974745512,134.2803833000362,[-0.38333333333333336],[0.46166666666666667],[1],[0],[0],[8.970900299958885],[],534755,001,2024-10-07_20h03.29.800,visualsearch,2024.1.5,None,2024-10-07 20h03.35.407349 +0530,
57,0,57,0,134.34198749996722,,134.28257529996336,10,134.34198749996722,134.34198749996722,0.02620530012063682,139.1768941001501,[-0.06166666666666667],[-0.25333333333333335],[1],[0],[0],[4.868187600048259],['target'],534755,001,2024-10-07_20h03.29.800,visualsearch,2024.1.5,None,2024-10-07 20h03.35.407349 +0530,
58,0,58,0,139.23875180003233,,139.18048350000754,10,139.23875180003233,139.23875180003233,0.022402500035241246,145.30878560012206,[0.23333333333333334],[-0.085],[1],[0],[0],[6.105789799941704],[],534755,001,2024-10-07_20h03.29.800,visualsearch,2024.1.5,None,2024-10-07 20h03.35.407349 +0530,
59,0,59,0,145.3847750001587,,145.3118770001456,10,145.3847750001587,145.3847750001587,0.025834200205281377,150.5875308001414,[-0.2866666666666667],[0.013333333333333334],[1],[0],[0],[5.250412000110373],[],534755,001,2024-10-07_20h03.29.800,visualsearch,2024.1.5,None,2024-10-07 20h03.35.407349 +0530,
60,0,60,0,150.61570950015448,,150.5899426001124,5,150.61570950015448,150.61570950015448,0.013100899988785386,151.83544809999876,[0.3983333333333333],[-0.30666666666666664],[1],[0],[0],[1.2325281999073923],['target'],534755,001,2024-10-07_20h03.29.800,visualsearch,2024.1.5,None,2024-10-07 20h03.35.407349 +0530,
61,0,61,0,151.86420940002427,,151.83750730007887,5,151.86420940002427,151.86420940002427,0.012905600015074015,153.13496880000457,[-0.4216666666666667],[0.08],[1],[0],[0],[1.284741000039503],['target'],534755,001,2024-10-07_20h03.29.800,visualsearch,2024.1.5,None,2024-10-07 20h03.35.407349 +0530,
62,0,62,0,153.16271770000458,,153.13777959998697,5,153.16271770000458,153.16271770000458,0.014104400062933564,154.60283640003763,[-0.18833333333333332],[-0.35833333333333334],[1],[0],[0],[1.451559699838981],['target'],534755,001,2024-10-07_20h03.29.800,visualsearch,2024.1.5,None,2024-10-07 20h03.35.407349 +0530,
63,0,63,0,154.6625394001603,,154.6057186999824,10,154.6625394001603,154.6625394001603,0.02234110003337264,157.182483300101,[0.085],[-0.37],[1],[0],[0],[2.5547527000308037],['target'],534755,001,2024-10-07_20h03.29.800,visualsearch,2024.1.5,None,2024-10-07 20h03.35.407349 +0530,
64,0,64,0,157.22742340015247,,157.18664930015802,10,157.22742340015247,157.22742340015247,0.02131760003976524,158.33039980009198,[0.2916666666666667],[-0.15],[1],[0],[0],[1.1227949999738485],['target'],534755,001,2024-10-07_20h03.29.800,visualsearch,2024.1.5,None,2024-10-07 20h03.35.407349 +0530,
65,0,65,0,158.36032110010274,,158.33260710001923,5,158.36032110010274,158.36032110010274,0.012445200001820922,160.347776300041,[-0.02666666666666667],[0.48],[1],[0],[0],[2.0028894001152366],['target'],534755,001,2024-10-07_20h03.29.800,visualsearch,2024.1.5,None,2024-10-07 20h03.35.407349 +0530,
66,0,66,0,160.3754712000955,,160.35028270003386,5,160.3754712000955,160.3754712000955,0.013462499948218465,161.52930160006508,[0.07833333333333334],[0.21833333333333332],[1],[0],[0],[1.165579800028354],['target'],534755,001,2024-10-07_20h03.29.800,visualsearch,2024.1.5,None,2024-10-07 20h03.35.407349 +0530,
67,0,67,0,161.57485090009868,,161.5314293000847,10,161.57485090009868,161.57485090009868,0.022580399876460433,163.2120291001629,[0.4166666666666667],[-0.26],[1],[0],[0],[1.658112200209871],['target'],534755,001,2024-10-07_20h03.29.800,visualsearch,2024.1.5,None,2024-10-07 20h03.35.407349 +0530,
68,0,68,0,163.23976809997112,,163.2149563001003,5,163.23976809997112,163.23976809997112,0.0137060999404639,164.41182010015473,[0.355],[0.34],[1],[0],[0],[1.1835012999363244],['target'],534755,001,2024-10-07_20h03.29.800,visualsearch,2024.1.5,None,2024-10-07 20h03.35.407349 +0530,
69,0,69,0,164.4392286001239,,164.41484270012006,5,164.4392286001239,164.4392286001239,0.013135300017893314,165.5118170999922,[0.31166666666666665],[-0.13333333333333333],[1],[0],[0],[1.0839076000265777],['target'],534755,001,2024-10-07_20h03.29.800,visualsearch,2024.1.5,None,2024-10-07 20h03.35.407349 +0530,
70,0,70,0,165.53882350004278,,165.5150204000529,5,165.53882350004278,165.53882350004278,0.011043100152164698,166.7774672000669,[0.475],[-0.3616666666666667],[1],[0],[0],[1.2512254000175744],['target'],534755,001,2024-10-07_20h03.29.800,visualsearch,2024.1.5,None,2024-10-07 20h03.35.407349 +0530,
71,0,71,0,166.80451839999296,,166.78000789997168,5,166.80451839999296,166.80451839999296,0.013089300133287907,169.40888040000573,[0.23],[0.4766666666666667],[1],[0],[0],[2.615993599873036],['target'],534755,001,2024-10-07_20h03.29.800,visualsearch,2024.1.5,None,2024-10-07 20h03.35.407349 +0530,
72,0,72,0,169.45268020010553,,169.41099880007096,10,169.45268020010553,169.45268020010553,0.020719599910080433,171.05624069995247,[-0.3283333333333333],[0.4033333333333333],[1],[0],[0],[1.624670899938792],['target'],534755,001,2024-10-07_20h03.29.800,visualsearch,2024.1.5,None,2024-10-07 20h03.35.407349 +0530,
73,0,73,0,171.10197010007687,,171.05925679998472,10,171.10197010007687,171.10197010007687,0.02156480005942285,172.1878335000947,[-0.4266666666666667],[0.4266666666666667],[1],[0],[0],[1.1073896000161767],['target'],534755,001,2024-10-07_20h03.29.800,visualsearch,2024.1.5,None,2024-10-07 20h03.35.407349 +0530,
74,0,74,0,172.25066150003113,,172.18998409993947,10,172.25066150003113,172.25066150003113,0.02148009999655187,173.68656249996275,[0.29],[0.11166666666666666],[1],[0],[0],[1.475117600057274],['target'],534755,001,2024-10-07_20h03.29.800,visualsearch,2024.1.5,None,2024-10-07 20h03.35.407349 +0530,
75,0,75,0,173.71705000009388,,173.68907710001804,5,173.71705000009388,173.71705000009388,0.01046180003322661,175.3884992999956,[-0.4216666666666667],[0.051666666666666666],[1],[0],[0],[1.6891958999913186],['target'],534755,001,2024-10-07_20h03.29.800,visualsearch,2024.1.5,None,2024-10-07 20h03.35.407349 +0530,
76,0,76,0,175.41560510010459,,175.39061280013993,5,175.41560510010459,175.41560510010459,0.012336299987509847,176.88754889997654,[0.215],[0.26166666666666666],[1],[0],[0],[1.4845969998277724],['target'],534755,001,2024-10-07_20h03.29.800,visualsearch,2024.1.5,None,2024-10-07 20h03.35.407349 +0530,
77,0,77,0,176.9319877999369,,176.89040339994244,10,176.9319877999369,176.9319877999369,0.020573199959471822,178.35209430009127,[0.21333333333333335],[-0.12833333333333333],[1],[0],[0],[1.441357099916786],['target'],534755,001,2024-10-07_20h03.29.800,visualsearch,2024.1.5,None,2024-10-07 20h03.35.407349 +0530,
78,0,78,0,178.3801611000672,,178.35514830006287,5,178.3801611000672,178.3801611000672,0.013998400187119842,179.3865396999754,[0.17],[0.09333333333333334],[1],[0],[0],[1.0181817000266165],['target'],534755,001,2024-10-07_20h03.29.800,visualsearch,2024.1.5,None,2024-10-07 20h03.35.407349 +0530,
79,0,79,0,179.41346179996617,,179.38917290000245,5,179.41346179996617,179.41346179996617,0.012734099989756942,180.7686252000276,[-0.075],[0.34833333333333333],[1],[0],[0],[1.3664526999928057],['target'],534755,001,2024-10-07_20h03.29.800,visualsearch,2024.1.5,None,2024-10-07 20h03.35.407349 +0530,
80,0,80,0,180.79656239994802,,180.77325630001724,5,180.79656239994802,180.79656239994802,0.01535829994827509,182.65063820010982,[0.11166666666666666],[0.3516666666666667],[1],[0],[0],[1.86269410001114],[],534755,001,2024-10-07_20h03.29.800,visualsearch,2024.1.5,None,2024-10-07 20h03.35.407349 +0530,
81,0,81,0,182.67756900005043,,182.65337239997461,5,182.67756900005043,182.67756900005043,0.013951800065115094,183.54809659998864,[-0.18],[0.2633333333333333],[1],[0],[0],[0.8809577999636531],['target'],534755,001,2024-10-07_20h03.29.800,visualsearch,2024.1.5,None,2024-10-07 20h03.35.407349 +0530,
82,0,82,0,183.5946003999561,,183.55023610009812,10,183.5946003999561,183.5946003999561,0.026076700072735548,184.69946090015583,[0.45166666666666666],[0.36666666666666664],[1],[0],[0],[1.123258400009945],['target'],534755,001,2024-10-07_20h03.29.800,visualsearch,2024.1.5,None,2024-10-07 20h03.35.407349 +0530,
83,0,83,0,184.7437070000451,,184.70181860006414,10,184.7437070000451,184.7437070000451,0.022683799965307117,186.41832410008647,[-0.05333333333333334],[0.4216666666666667],[1],[0],[0],[1.6938951001502573],['target'],534755,001,2024-10-07_20h03.29.800,visualsearch,2024.1.5,None,2024-10-07 20h03.35.407349 +0530,
84,0,84,0,186.47553270007484,,186.42162670008838,10,186.47553270007484,186.47553270007484,0.023377700010314584,187.37883340008557,[0.035],[0.27666666666666667],[1],[0],[0],[0.9342364000622183],['target'],534755,001,2024-10-07_20h03.29.800,visualsearch,2024.1.5,None,2024-10-07 20h03.35.407349 +0530,
85,0,85,0,187.4414459001273,,187.38112269993871,10,187.4414459001273,187.4414459001273,0.026722299866378307,189.5274998000823,[0.4083333333333333],[0.16666666666666666],[1],[0],[0],[2.1190544001292437],['target'],534755,001,2024-10-07_20h03.29.800,visualsearch,2024.1.5,None,2024-10-07 20h03.35.407349 +0530,
86,0,86,0,189.55684230010957,,189.5298693999648,5,189.55684230010957,189.55684230010957,0.010521200019866228,190.67880380013958,[0.19666666666666666],[0.25],[1],[0],[0],[1.1385955999139696],['target'],534755,001,2024-10-07_20h03.29.800,visualsearch,2024.1.5,None,2024-10-07 20h03.35.407349 +0530,
87,0,87,0,190.7228071000427,,190.68133360007778,10,190.7228071000427,190.7228071000427,0.02605549991130829,192.126015300164,[-0.22],[0.18666666666666668],[1],[0],[0],[1.4186154000926763],['target'],534755,001,2024-10-07_20h03.29.800,visualsearch,2024.1.5,None,2024-10-07 20h03.35.407349 +0530,
88,0,88,0,192.1716776001267,,192.12877990002744,10,192.1716776001267,192.1716776001267,0.020436699967831373,196.4225645000115,[-0.06333333333333334],[0.44166666666666665],[1],[0],[0],[4.273376900004223],['target'],534755,001,2024-10-07_20h03.29.800,visualsearch,2024.1.5,None,2024-10-07 20h03.35.407349 +0530,
89,0,89,0,196.4690658999607,,196.42507250001654,10,196.4690658999607,196.4690658999607,0.02152900001965463,197.80416890000924,[0.225],[-0.1],[1],[0],[0],[1.3577617998234928],['target'],534755,001,2024-10-07_20h03.29.800,visualsearch,2024.1.5,None,2024-10-07 20h03.35.407349 +0530,
90,0,90,0,197.86864860006608,,197.80648560007103,10,197.86864860006608,197.86864860006608,0.021411499939858913,198.9056428000331,[0.21333333333333335],[0.205],[1],[0],[0],[1.077997799962759],['target'],534755,001,2024-10-07_20h03.29.800,visualsearch,2024.1.5,None,2024-10-07 20h03.35.407349 +0530,
91,0,91,0,198.93408880010247,,198.90926750004292,5,198.93408880010247,198.93408880010247,0.013325199950486422,201.05694020004012,[0.355],[0.48833333333333334],[1],[0],[0],[2.134618599899113],[],534755,001,2024-10-07_20h03.29.800,visualsearch,2024.1.5,None,2024-10-07 20h03.35.407349 +0530,
92,0,92,0,201.1000184000004,,201.05992990010418,10,201.1000184000004,201.1000184000004,0.022708200151100755,206.38326460006647,[-0.25833333333333336],[-0.165],[1],[0],[0],[5.30107060004957],['target'],534755,001,2024-10-07_20h03.29.800,visualsearch,2024.1.5,None,2024-10-07 20h03.35.407349 +0530,
93,0,93,0,206.44600680004805,,206.3854606000241,10,206.44600680004805,206.44600680004805,0.025432399939745665,207.91686310013756,[0.21],[0.255],[1],[0],[0],[1.5059203999117017],['target'],534755,001,2024-10-07_20h03.29.800,visualsearch,2024.1.5,None,2024-10-07 20h03.35.407349 +0530,
94,0,94,0,207.94552429998294,,207.92044520005584,5,207.94552429998294,207.94552429998294,0.013332500122487545,209.76607670006342,[-0.445],[0.16833333333333333],[1],[0],[0],[1.8332541000563651],['target'],534755,001,2024-10-07_20h03.29.800,visualsearch,2024.1.5,None,2024-10-07 20h03.35.407349 +0530,
95,0,95,0,209.810984400101,,209.7682696999982,10,209.810984400101,209.810984400101,0.024716000072658062,211.11383710009977,[-0.075],[-0.18],[1],[0],[0],[1.3208574000746012],['target'],534755,001,2024-10-07_20h03.29.800,visualsearch,2024.1.5,None,2024-10-07 20h03.35.407349 +0530,
96,0,96,0,211.16032869997434,,211.11602180008776,10,211.16032869997434,211.16032869997434,0.02402419992722571,212.1658890999388,[0.09666666666666666],[-0.30833333333333335],[1],[0],[0],[1.0258343999739736],['target'],534755,001,2024-10-07_20h03.29.800,visualsearch,2024.1.5,None,2024-10-07 20h03.35.407349 +0530,
97,0,97,0,212.19255110016093,,212.16903510014527,5,212.19255110016093,212.19255110016093,0.012805999955162406,214.1009504001122,[-0.016666666666666666],[-0.045],[1],[0],[0],[1.919368099886924],[],534755,001,2024-10-07_20h03.29.800,visualsearch,2024.1.5,None,2024-10-07 20h03.35.407349 +0530,
98,0,98,0,214.15875390009023,,214.10423790011555,10,214.15875390009023,214.15875390009023,0.0262473002076149,216.4428161000833,[0.235],[0.44333333333333336],[1],[0],[0],[2.3125820998102427],['target'],534755,001,2024-10-07_20h03.29.800,visualsearch,2024.1.5,None,2024-10-07 20h03.35.407349 +0530,
99,0,99,0,216.48946040007286,,216.44490769994445,10,216.48946040007286,216.48946040007286,0.023620899999514222,218.59129570005462,[-0.3466666666666667],[0.29333333333333333],[1],[0],[0],[2.122858500108123],['target'],534755,001,2024-10-07_20h03.29.800,visualsearch,2024.1.5,None,2024-10-07 20h03.35.407349 +0530,
100,0,100,0,218.62190599995665,,218.59347390010953,5,218.62190599995665,218.62190599995665,0.01270360010676086,219.94258150015958,[0.33666666666666667],[0.18166666666666667],[1],[0],[0],[1.3366092999931425],['target'],534755,001,2024-10-07_20h03.29.800,visualsearch,2024.1.5,None,2024-10-07 20h03.35.407349 +0530,
101,0,101,0,219.97141710016876,,219.94551520003006,5,219.97141710016876,219.97141710016876,0.013935500057414174,221.2268813000992,[-0.095],[-0.09833333333333333],[1],[0],[0],[1.2677782999817282],[],534755,001,2024-10-07_20h03.29.800,visualsearch,2024.1.5,None,2024-10-07 20h03.35.407349 +0530,
102,0,102,0,221.25311990012415,,221.23006339999847,5,221.25311990012415,221.25311990012415,0.01106139994226396,222.4239187000785,[0.29333333333333333],[-0.24166666666666667],[1],[0],[0],[1.1830164999701083],['target'],534755,001,2024-10-07_20h03.29.800,visualsearch,2024.1.5,None,2024-10-07 20h03.35.407349 +0530,
103,0,103,0,222.46935339993797,,222.426830700133,10,222.46935339993797,222.46935339993797,0.022617599926888943,225.07107609999366,[-0.25],[-0.23666666666666666],[1],[0],[0],[2.621941699879244],['target'],534755,001,2024-10-07_20h03.29.800,visualsearch,2024.1.5,None,2024-10-07 20h03.35.407349 +0530,
104,0,104,0,225.13387569994666,,225.0744115000125,10,225.13387569994666,225.13387569994666,0.023643500171601772,232.51559019996785,[-0.335],[-0.3883333333333333],[1],[0],[0],[7.417985099833459],['target'],534755,001,2024-10-07_20h03.29.800,visualsearch,2024.1.5,None,2024-10-07 20h03.35.407349 +0530,
105,0,105,0,232.54614300001413,,232.51775400014594,5,232.54614300001413,232.54614300001413,0.010698099853470922,234.13454190013,[-0.021666666666666667],[-0.03333333333333333],[1],[0],[0],[1.6062729000113904],['target'],534755,001,2024-10-07_20h03.29.800,visualsearch,2024.1.5,None,2024-10-07 20h03.35.407349 +0530,
106,0,106,0,234.17810300015844,,234.13668270013295,10,234.17810300015844,234.17810300015844,0.02446560002863407,236.7157387000043,[-0.013333333333333334],[-0.055],[1],[0],[0],[2.5545973000116646],[],534755,001,2024-10-07_20h03.29.800,visualsearch,2024.1.5,None,2024-10-07 20h03.35.407349 +0530,
107,0,107,0,236.7433042000048,,236.71783480001613,5,236.7433042000048,236.7433042000048,0.01237719994969666,237.5822395000141,[-0.03666666666666667],[-0.18166666666666667],[1],[0],[0],[0.8521673001814634],['target'],534755,001,2024-10-07_20h03.29.800,visualsearch,2024.1.5,None,2024-10-07 20h03.35.407349 +0530,
108,0,108,0,237.60951510001905,,237.58446369995363,5,237.60951510001905,237.60951510001905,0.014565000077709556,239.66507300012745,[-0.38],[-0.15333333333333332],[1],[0],[0],[2.066091400105506],['target'],534755,001,2024-10-07_20h03.29.800,visualsearch,2024.1.5,None,2024-10-07 20h03.35.407349 +0530,
109,0,109,0,239.7082698000595,,239.6674860001076,10,239.7082698000595,239.7082698000595,0.0216472998727113,244.42595089995302,[-0.3933333333333333],[-0.34833333333333333],[1],[0],[0],[4.736900300020352],['target'],534755,001,2024-10-07_20h03.29.800,visualsearch,2024.1.5,None,2024-10-07 20h03.35.407349 +0530,
110,0,110,0,244.47217210009694,,244.42876070016064,10,244.47217210009694,244.47217210009694,0.0233519000466913,246.29301559994929,[-0.02666666666666667],[0.24],[1],[0],[0],[1.8414216998498887],['target'],534755,001,2024-10-07_20h03.29.800,visualsearch,2024.1.5,None,2024-10-07 20h03.35.407349 +0530,
111,0,111,0,246.32095630001277,,246.296213200083,5,246.32095630001277,246.32095630001277,0.01450500008650124,247.75980480015278,[0.155],[-0.3016666666666667],[1],[0],[0],[1.44929420016706],['target'],534755,001,2024-10-07_20h03.29.800,visualsearch,2024.1.5,None,2024-10-07 20h03.35.407349 +0530,
112,0,112,0,247.80349960015155,,247.76255620014854,10,247.80349960015155,247.80349960015155,0.023345900001004338,250.671098300023,[0.38166666666666665],[0.11],[1],[0],[0],[2.8854076999705285],[],534755,001,2024-10-07_20h03.29.800,visualsearch,2024.1.5,None,2024-10-07 20h03.35.407349 +0530,
113,0,113,0,250.7177212999668,,250.673384899972,10,250.7177212999668,250.7177212999668,0.019863999914377928,251.72096120007336,[0.41333333333333333],[0.08],[1],[0],[0],[1.0277438999619335],['target'],534755,001,2024-10-07_20h03.29.800,visualsearch,2024.1.5,None,2024-10-07 20h03.35.407349 +0530,
114,0,114,0,251.7837978999596,,251.7245428999886,10,251.7837978999596,251.7837978999596,0.022251500049605966,258.61647849995643,[0.36333333333333334],[0.205],[1],[0],[0],[6.870399999897927],['target'],534755,001,2024-10-07_20h03.29.800,visualsearch,2024.1.5,None,2024-10-07 20h03.35.407349 +0530,
115,0,115,0,258.6463866000995,,258.618906600168,5,258.6463866000995,258.6463866000995,0.011141099967062473,259.7674744001124,[0.215],[-0.04],[1],[0],[0],[1.1376683998387307],[],534755,001,2024-10-07_20h03.29.800,visualsearch,2024.1.5,None,2024-10-07 20h03.35.407349 +0530,
116,0,116,0,259.81161530013196,,259.7707225000486,10,259.81161530013196,259.81161530013196,0.023897100007161498,261.04796340013854,[0.41],[0.3016666666666667],[1],[0],[0],[1.2536072002258152],['target'],534755,001,2024-10-07_20h03.29.800,visualsearch,2024.1.5,None,2024-10-07 20h03.35.407349 +0530,
117,0,117,0,261.0777209000662,,261.05042050010525,5,261.0777209000662,261.0777209000662,0.013354300055652857,262.8007696000859,[-0.38],[0.3283333333333333],[1],[0],[0],[1.7366414999123663],['target'],534755,001,2024-10-07_20h03.29.800,visualsearch,2024.1.5,None,2024-10-07 20h03.35.407349 +0530,
118,0,118,0,262.84418920008466,,262.8033191000577,10,262.84418920008466,262.84418920008466,0.024949099868535995,266.09665540000424,[-0.04666666666666667],[0.4666666666666667],[1],[0],[0],[3.268348400015384],[],534755,001,2024-10-07_20h03.29.800,visualsearch,2024.1.5,None,2024-10-07 20h03.35.407349 +0530,
119,0,119,0,266.125142400153,,266.09884810005315,5,266.125142400153,266.125142400153,0.0134336999617517,267.6112784999423,[0.18166666666666667],[-0.39],[1],[0],[0],[1.499179899925366],['target'],534755,001,2024-10-07_20h03.29.800,visualsearch,2024.1.5,None,2024-10-07 20h03.35.407349 +0530,
120,0,120,0,267.657877500169,,267.61338019999675,10,267.657877500169,267.657877500169,0.023678999859839678,269.2620415999554,[0.08666666666666667],[0.3],[1],[0],[0],[1.6249643999617547],['target'],534755,001,2024-10-07_20h03.29.800,visualsearch,2024.1.5,None,2024-10-07 20h03.35.407349 +0530,
121,0,121,0,269.28951620007865,,269.26510279998183,5,269.28951620007865,269.28951620007865,0.01317010005004704,270.3793757001404,[0.09333333333333334],[0.043333333333333335],[1],[0],[0],[1.1011862000450492],['target'],534755,001,2024-10-07_20h03.29.800,visualsearch,2024.1.5,None,2024-10-07 20h03.35.407349 +0530,
122,0,122,0,270.42285159998573,,270.38271789997816,10,270.42285159998573,270.42285159998573,0.022808999987319112,275.2057360999752,[-0.45166666666666666],[-0.25166666666666665],[1],[0],[0],[4.800402299966663],[],534755,001,2024-10-07_20h03.29.800,visualsearch,2024.1.5,None,2024-10-07 20h03.35.407349 +0530,
123,0,123,0,275.2525975999888,,275.20908910012804,10,275.2525975999888,275.2525975999888,0.021318200044333935,280.6194840001408,[0.058333333333333334],[-0.29833333333333334],[1],[0],[0],[5.389212100068107],[],534755,001,2024-10-07_20h03.29.800,visualsearch,2024.1.5,None,2024-10-07 20h03.35.407349 +0530,
124,0,124,0,280.6822222999763,,280.6217678000685,10,280.6822222999763,280.6822222999763,0.022029400104656816,284.2165043000132,[0.20833333333333334],[-0.095],[1],[0],[0],[3.5727077999617904],[],534755,001,2024-10-07_20h03.29.800,visualsearch,2024.1.5,None,2024-10-07 20h03.35.407349 +0530,
125,0,125,0,284.28053060011007,,284.21884220000356,10,284.28053060011007,284.28053060011007,0.02074990002438426,289.84703160007484,[0.16833333333333333],[0.43],[1],[0],[0],[5.607327700126916],['target'],534755,001,2024-10-07_20h03.29.800,visualsearch,2024.1.5,None,2024-10-07 20h03.35.407349 +0530,
126,0,126,0,289.8766934000887,,289.85120250005275,5,289.8766934000887,289.8766934000887,0.015441299881786108,292.58394929999486,[0.006666666666666667],[0.49333333333333335],[1],[0],[0],[2.7174548998009413],['target'],534755,001,2024-10-07_20h03.29.800,visualsearch,2024.1.5,None,2024-10-07 20h03.35.407349 +0530,
127,0,127,0,292.6422985000536,,292.5882854000665,10,292.6422985000536,292.6422985000536,0.03485299996100366,293.6627422000747,[0.13],[0.285],[1],[0],[0],[1.039714999962598],['target'],534755,001,2024-10-07_20h03.29.800,visualsearch,2024.1.5,None,2024-10-07 20h03.35.407349 +0530,
128,0,128,0,293.74077160004526,,293.66729150014,10,293.74077160004526,293.74077160004526,0.038997100200504065,295.377213699976,[-0.30333333333333334],[0.135],[1],[0],[0],[1.671438799938187],['target'],534755,001,2024-10-07_20h03.29.800,visualsearch,2024.1.5,None,2024-10-07 20h03.35.407349 +0530,
129,0,129,0,295.4229125001002,,295.3811880000867,5,295.4229125001002,295.4229125001002,0.01973029994405806,296.80435049999505,[0.03333333333333333],[0.26166666666666666],[1],[0],[0],[1.4033988998271525],['target'],534755,001,2024-10-07_20h03.29.800,visualsearch,2024.1.5,None,2024-10-07 20h03.35.407349 +0530,
130,0,130,0,296.8555381000042,,296.8116300001275,5,296.8555381000042,296.8555381000042,0.022294099908322096,298.13075909996405,[0.375],[-0.15],[1],[0],[0],[1.2973547999281436],['target'],534755,001,2024-10-07_20h03.29.800,visualsearch,2024.1.5,None,2024-10-07 20h03.35.407349 +0530,
131,0,131,0,298.18808980006725,,298.1364609999582,10,298.18808980006725,298.18808980006725,0.03014639997854829,300.2817142000422,[-0.21333333333333335],[0.08833333333333333],[1],[0],[0],[2.1156386001966894],['target'],534755,001,2024-10-07_20h03.29.800,visualsearch,2024.1.5,None,2024-10-07 20h03.35.407349 +0530,
132,0,132,0,300.3368021999486,,300.28973710001446,5,300.3368021999486,300.3368021999486,0.023992599919438362,301.6444017000031,[-0.475],[0.27],[1],[0],[0],[1.331214799778536],['target'],534755,001,2024-10-07_20h03.29.800,visualsearch,2024.1.5,None,2024-10-07 20h03.35.407349 +0530,
133,0,133,0,301.68589500011876,,301.64982359996065,5,301.68589500011876,301.68589500011876,0.016511399997398257,304.35940359998494,[-0.485],[0.49],[1],[0],[0],[2.6933800999540836],['target'],534755,001,2024-10-07_20h03.29.800,visualsearch,2024.1.5,None,2024-10-07 20h03.35.407349 +0530,
134,0,134,0,304.41720900009386,,304.3667667999398,10,304.41720900009386,304.41720900009386,0.035004999954253435,305.33899580012076,[-0.43833333333333335],[0.43833333333333335],[1],[0],[0],[0.9380773999728262],['target'],534755,001,2024-10-07_20h03.29.800,visualsearch,2024.1.5,None,2024-10-07 20h03.35.407349 +0530,
135,0,135,0,305.41733349999413,,305.3444235001225,10,305.41733349999413,305.41733349999413,0.04209019988775253,311.002941200044,[-0.03],[0.028333333333333332],[1],[0],[0],[5.616910800104961],[],534755,001,2024-10-07_20h03.29.800,visualsearch,2024.1.5,None,2024-10-07 20h03.35.407349 +0530,
136,0,136,0,311.0803778001573,,311.0092021001037,10,311.0803778001573,311.0803778001573,0.039437799947336316,315.1816205000505,[-0.4866666666666667],[-0.2633333333333333],[1],[0],[0],[4.133807300124317],['target'],534755,001,2024-10-07_20h03.29.800,visualsearch,2024.1.5,None,2024-10-07 20h03.35.407349 +0530,
137,0,137,0,315.21048070001416,,315.1853716999758,5,315.21048070001416,315.21048070001416,0.01522830012254417,316.6230766000226,[-0.485],[0.43166666666666664],[1],[0],[0],[1.422256600111723],['target'],534755,001,2024-10-07_20h03.29.800,visualsearch,2024.1.5,None,2024-10-07 20h03.35.407349 +0530,
138,0,138,0,316.6927178001497,,316.6314139000606,10,316.6927178001497,316.6927178001497,0.036057099932804704,318.98090610001236,[0.2833333333333333],[-0.4],[1],[0],[0],[2.314065600046888],['target'],534755,001,2024-10-07_20h03.29.800,visualsearch,2024.1.5,None,2024-10-07 20h03.35.407349 +0530,
139,0,139,0,319.0247464000713,,318.98762860009447,5,319.0247464000713,319.0247464000713,0.021207200130447745,320.484741399996,[-0.5133333333333333],[0.16],[1],[0],[0],[1.47661880007945],[],534755,001,2024-10-07_20h03.29.800,visualsearch,2024.1.5,None,2024-10-07 20h03.35.407349 +0530,
140,0,140,0,320.5403497000225,,320.48959990008734,10,320.5403497000225,320.5403497000225,0.03187450021505356,321.92969080014154,[0.04833333333333333],[0.19],[1],[0],[0],[1.408437900012359],['target'],534755,001,2024-10-07_20h03.29.800,visualsearch,2024.1.5,None,2024-10-07 20h03.35.407349 +0530,
141,0,141,0,321.97290860000066,,321.93569199997,5,321.97290860000066,321.97290860000066,0.018519100034609437,323.2009861001279,[-0.15166666666666667],[-0.24166666666666667],[1],[0],[0],[1.247337699867785],['target'],534755,001,2024-10-07_20h03.29.800,visualsearch,2024.1.5,None,2024-10-07 20h03.35.407349 +0530,
142,0,142,0,323.2898592001293,,323.20819570007734,10,323.2898592001293,323.2898592001293,0.050919200060889125,324.42598300008103,[-0.19833333333333333],[0.08166666666666667],[1],[0],[0],[1.1679513999260962],['target'],534755,001,2024-10-07_20h03.29.800,visualsearch,2024.1.5,None,2024-10-07 20h03.35.407349 +0530,
143,0,143,0,324.4546403000131,,324.42919320007786,5,324.4546403000131,324.4546403000131,0.01422800007276237,325.82990050013177,[0.43666666666666665],[-0.265],[1],[0],[0],[1.386242999928072],['target'],534755,001,2024-10-07_20h03.29.800,visualsearch,2024.1.5,None,2024-10-07 20h03.35.407349 +0530,
144,0,144,0,325.8702901999932,,325.83883440005593,5,325.8702901999932,325.8702901999932,0.02149640000425279,326.91763440007344,[0.3933333333333333],[-0.395],[1],[0],[0],[1.058714000042528],['target'],534755,001,2024-10-07_20h03.29.800,visualsearch,2024.1.5,None,2024-10-07 20h03.35.407349 +0530,
145,0,145,0,326.98619289998896,,326.92543309996836,10,326.98619289998896,326.98619289998896,0.03683130000717938,329.9616213000845,[0.365],[0.30333333333333334],[1],[0],[0],[2.999947999836877],['target'],534755,001,2024-10-07_20h03.29.800,visualsearch,2024.1.5,None,2024-10-07 20h03.35.407349 +0530,
146,0,146,0,330.01820720010437,,329.96770910010673,10,330.01820720010437,330.01820720010437,0.02999609988182783,330.8597766000312,[0.42],[0.33666666666666667],[1],[0],[0],[0.8629692001268268],['target'],534755,001,2024-10-07_20h03.29.800,visualsearch,2024.1.5,None,2024-10-07 20h03.35.407349 +0530,
147,0,147,0,330.90123610012233,,330.8650080000516,5,330.90123610012233,330.90123610012233,0.017045499989762902,332.0117770000361,[0.12],[0.18333333333333332],[1],[0],[0],[1.1299116001464427],['target'],534755,001,2024-10-07_20h03.29.800,visualsearch,2024.1.5,None,2024-10-07 20h03.35.407349 +0530,
148,0,148,0,332.0840640999377,,332.01942560006864,10,332.0840640999377,332.0840640999377,0.034175700042396784,334.25450609996915,[-0.27],[-0.33166666666666667],[1],[0],[0],[2.2010529001709074],['target'],534755,001,2024-10-07_20h03.29.800,visualsearch,2024.1.5,None,2024-10-07 20h03.35.407349 +0530,
149,0,149,0,334.3149180000182,,334.25999940000474,10,334.3149180000182,334.3149180000182,0.034333699848502874,336.4337585000321,[-0.2783333333333333],[0.25333333333333335],[1],[0],[0],[2.140166499884799],['target'],534755,001,2024-10-07_20h03.29.800,visualsearch,2024.1.5,None,2024-10-07 20h03.35.407349 +0530,
150,0,150,0,336.51343549997546,,336.4381331000477,10,336.51343549997546,336.51343549997546,0.03888719994574785,343.1959756000433,[0.4216666666666667],[0.49666666666666665],[1],[0],[0],[6.719406899996102],['target'],534755,001,2024-10-07_20h03.29.800,visualsearch,2024.1.5,None,2024-10-07 20h03.35.407349 +0530,
151,0,151,0,343.2258306001313,,343.19872500002384,5,343.2258306001313,343.2258306001313,0.01399690005928278,345.08671039994806,[0.36666666666666664],[-0.08333333333333333],[1],[0],[0],[1.8736459999345243],[],534755,001,2024-10-07_20h03.29.800,visualsearch,2024.1.5,None,2024-10-07 20h03.35.407349 +0530,
152,0,152,0,345.1414718001615,,345.0927055000793,10,345.1414718001615,345.1414718001615,0.02899919985793531,346.283676299965,[0.445],[0.41],[1],[0],[0],[1.1629077000543475],['target'],534755,001,2024-10-07_20h03.29.800,visualsearch,2024.1.5,None,2024-10-07 20h03.35.407349 +0530,
153,0,153,0,346.3242010001559,,346.2878531999886,5,346.3242010001559,346.3242010001559,0.015515600098297,347.750955699943,[-0.32],[0.45666666666666667],[1],[0],[0],[1.4476828000042588],['target'],534755,001,2024-10-07_20h03.29.800,visualsearch,2024.1.5,None,2024-10-07 20h03.35.407349 +0530,
154,0,154,0,347.82314630015753,,347.7591997999698,10,347.82314630015753,347.82314630015753,0.03590069990605116,349.59804220008664,[0.28833333333333333],[0.22666666666666666],[1],[0],[0],[1.8038021000102162],['target'],534755,001,2024-10-07_20h03.29.800,visualsearch,2024.1.5,None,2024-10-07 20h03.35.407349 +0530,
155,0,155,0,349.6393788999412,,349.60472299996763,5,349.6393788999412,349.6393788999412,0.024605599930509925,351.7114783001598,[-0.36333333333333334],[-0.28],[1],[0],[0],[2.0828370000235736],['target'],534755,001,2024-10-07_20h03.29.800,visualsearch,2024.1.5,None,2024-10-07 20h03.35.407349 +0530,
156,0,156,0,351.7873262001667,,351.717848100001,10,351.7873262001667,351.7873262001667,0.043337499955669045,352.9423150999937,[0.18166666666666667],[0.16333333333333333],[1],[0],[0],[1.1819007999729365],['target'],534755,001,2024-10-07_20h03.29.800,visualsearch,2024.1.5,None,2024-10-07 20h03.35.407349 +0530,
157,0,157,0,353.00307620014064,,352.948394499952,10,353.00307620014064,353.00307620014064,0.03127230005338788,355.92618190008216,[-0.36833333333333335],[-0.3383333333333333],[1],[0],[0],[2.9472556998953223],['target'],534755,001,2024-10-07_20h03.29.800,visualsearch,2024.1.5,None,2024-10-07 20h03.35.407349 +0530,
158,0,158,0,356.00123870000243,,355.930424900027,10,356.00123870000243,356.00123870000243,0.0412107000593096,357.32045829994604,[-0.365],[-0.22333333333333333],[1],[0],[0],[1.3491819999180734],['target'],534755,001,2024-10-07_20h03.29.800,visualsearch,2024.1.5,None,2024-10-07 20h03.35.407349 +0530,
159,0,159,0,357.4011132000014,,357.324238399975,10,357.4011132000014,357.4011132000014,0.03171949996612966,361.45094930008054,[-0.23333333333333334],[0.185],[1],[0],[0],[4.0953571000136435],[],534755,001,2024-10-07_20h03.29.800,visualsearch,2024.1.5,None,2024-10-07 20h03.35.407349 +0530,
160,0,160,0,361.4815173000097,,361.45386800006963,5,361.4815173000097,361.4815173000097,0.013876799959689379,362.7918821000494,[-0.445],[0.3016666666666667],[1],[0],[0],[1.3238903998862952],['target'],534755,001,2024-10-07_20h03.29.800,visualsearch,2024.1.5,None,2024-10-07 20h03.35.407349 +0530,
161,0,161,0,362.8805283000693,,362.7993815999944,10,362.8805283000693,362.8805283000693,0.046808899845927954,366.73359089996666,[0.20333333333333334],[0.4483333333333333],[1],[0],[0],[3.8881825001444668],['target'],534755,001,2024-10-07_20h03.29.800,visualsearch,2024.1.5,None,2024-10-07 20h03.35.407349 +0530,
162,0,162,0,366.7779489001259,,366.7383048001211,5,366.7779489001259,366.7779489001259,0.022270699962973595,368.03777049994096,[0.29],[0.24666666666666667],[1],[0],[0],[1.2774370999541134],['target'],534755,001,2024-10-07_20h03.29.800,visualsearch,2024.1.5,None,2024-10-07 20h03.35.407349 +0530,
163,0,163,0,368.0938872001134,,368.04463170003146,5,368.0938872001134,368.0938872001134,0.027659400133416057,369.4207355999388,[0.145],[0.4266666666666667],[1],[0],[0],[1.349301400128752],['target'],534755,001,2024-10-07_20h03.29.800,visualsearch,2024.1.5,None,2024-10-07 20h03.35.407349 +0530,
164,0,164,0,369.47615000000224,,369.42738320003264,10,369.47615000000224,369.47615000000224,0.03311309986747801,370.8999700001441,[0.3383333333333333],[0.30333333333333334],[1],[0],[0],[1.4405276000034064],['target'],534755,001,2024-10-07_20h03.29.800,visualsearch,2024.1.5,None,2024-10-07 20h03.35.407349 +0530,
165,0,165,0,370.9580701999366,,370.9044182000216,10,370.9580701999366,370.9580701999366,0.026987499790266156,376.0446560001001,[0.105],[0.10333333333333333],[1],[0],[0],[5.113472199998796],[],534755,001,2024-10-07_20h03.29.800,visualsearch,2024.1.5,None,2024-10-07 20h03.35.407349 +0530,
166,0,166,0,376.08863280015066,,376.0505864000879,5,376.08863280015066,376.08863280015066,0.018750800052657723,377.5966410001274,[-0.465],[-0.3016666666666667],[1],[0],[0],[1.5277116999495775],['target'],534755,001,2024-10-07_20h03.29.800,visualsearch,2024.1.5,None,2024-10-07 20h03.35.407349 +0530,
167,0,167,0,377.63748010015115,,377.603297600057,5,377.63748010015115,377.63748010015115,0.020836099982261658,378.8775885000359,[0.405],[0.056666666666666664],[1],[0],[0],[1.2542236000299454],['target'],534755,001,2024-10-07_20h03.29.800,visualsearch,2024.1.5,None,2024-10-07 20h03.35.407349 +0530,
168,0,168,0,378.9202062000986,,378.884325500112,5,378.9202062000986,378.9202062000986,0.02195299998857081,380.10969209996983,[0.3333333333333333],[-0.3416666666666667],[1],[0],[0],[1.2039508000016212],[],534755,001,2024-10-07_20h03.29.800,visualsearch,2024.1.5,None,2024-10-07 20h03.35.407349 +0530,
169,0,169,0,380.1693731001578,,380.11615280015394,5,380.1693731001578,380.1693731001578,0.027785099809989333,381.5132053999696,[0.35833333333333334],[0.14333333333333334],[1],[0],[0],[1.3698617999907583],[],534755,001,2024-10-07_20h03.29.800,visualsearch,2024.1.5,None,2024-10-07 20h03.35.407349 +0530,
170,0,170,0,381.58541560010053,,381.521565400064,10,381.58541560010053,381.58541560010053,0.03986799996346235,383.456035700161,[-0.385],[-0.37833333333333335],[1],[0],[0],[1.8954469000454992],['target'],534755,001,2024-10-07_20h03.29.800,visualsearch,2024.1.5,None,2024-10-07 20h03.35.407349 +0530,
171,0,171,0,383.51694030012004,,383.46012270008214,10,383.51694030012004,383.51694030012004,0.027828000020235777,385.5906502001453,[0.49],[0.37833333333333335],[1],[0],[0],[2.102265000110492],['target'],534755,001,2024-10-07_20h03.29.800,visualsearch,2024.1.5,None,2024-10-07 20h03.35.407349 +0530,
172,0,172,0,385.6656017000787,,385.5973301001359,10,385.6656017000787,385.6656017000787,0.03737240005284548,388.436929800082,[0.19],[-0.39166666666666666],[1],[0],[0],[2.802994800033048],['target'],534755,001,2024-10-07_20h03.29.800,visualsearch,2024.1.5,None,2024-10-07 20h03.35.407349 +0530,
173,0,173,0,388.4805322000757,,388.44349250011146,5,388.4805322000757,388.4805322000757,0.019920199876651168,389.72366000013426,[-0.4866666666666667],[-0.16333333333333333],[1],[0],[0],[1.2615571999922395],['target'],534755,001,2024-10-07_20h03.29.800,visualsearch,2024.1.5,None,2024-10-07 20h03.35.407349 +0530,
174,0,174,0,389.7635940001346,,389.7277226001024,5,389.7635940001346,389.7635940001346,0.0148503000382334,390.9568742001429,[0.3616666666666667],[-0.18666666666666668],[1],[0],[0],[1.2141845000442117],['target'],534755,001,2024-10-07_20h03.29.800,visualsearch,2024.1.5,None,2024-10-07 20h03.35.407349 +0530,
175,0,175,0,391.0122502001468,,390.9624757000711,10,391.0122502001468,391.0122502001468,0.030050700064748526,392.5847535999492,[-0.26666666666666666],[-0.345],[1],[0],[0],[1.5927481998223811],['target'],534755,001,2024-10-07_20h03.29.800,visualsearch,2024.1.5,None,2024-10-07 20h03.35.407349 +0530,
176,0,176,0,392.6612112999428,,392.59036270016804,10,392.6612112999428,392.6612112999428,0.04637610004283488,396.2829056000337,[-0.13833333333333334],[0.011666666666666667],[1],[0],[0],[3.6466626999899745],[],534755,001,2024-10-07_20h03.29.800,visualsearch,2024.1.5,None,2024-10-07 20h03.35.407349 +0530,
177,0,177,0,396.3588288000319,,396.2880299000535,10,396.3588288000319,396.3588288000319,0.03066319995559752,397.3950299001299,[-0.325],[0.045],[1],[0],[0],[1.0776626002043486],['target'],534755,001,2024-10-07_20h03.29.800,visualsearch,2024.1.5,None,2024-10-07 20h03.35.407349 +0530,
178,0,178,0,397.458022700157,,397.3977890999522,10,397.458022700157,397.458022700157,0.02651660004630685,398.1833097001072,[-0.335],[0.07333333333333333],[1],[0],[0],[0.7587082998361439],['target'],534755,001,2024-10-07_20h03.29.800,visualsearch,2024.1.5,None,2024-10-07 20h03.35.407349 +0530,
179,0,179,0,398.25800459994934,,398.1889535000082,10,398.25800459994934,398.25800459994934,0.029809599975124,402.0265196999535,[-0.12833333333333333],[-0.005],[1],[0],[0],[3.8082468998618424],[],534755,001,2024-10-07_20h03.29.800,visualsearch,2024.1.5,None,2024-10-07 20h03.35.407349 +0530,
180,0,180,0,402.07319510006346,,402.03059280011803,5,402.07319510006346,402.07319510006346,0.015887799905613065,403.36950889998116,[-0.24166666666666667],[-0.16],[1],[0],[0],[1.3227663999423385],['target'],534755,001,2024-10-07_20h03.29.800,visualsearch,2024.1.5,None,2024-10-07 20h03.35.407349 +0530,
181,0,181,0,403.43844530009665,,403.3751284000464,10,403.43844530009665,403.43844530009665,0.03719689999707043,404.4472719000187,[0.023333333333333334],[-0.26666666666666666],[1],[0],[0],[1.0352804001886398],['target'],534755,001,2024-10-07_20h03.29.800,visualsearch,2024.1.5,None,2024-10-07 20h03.35.407349 +0530,
182,0,182,0,404.48712850012816,,404.4520930000581,5,404.48712850012816,404.48712850012816,0.016330699902027845,405.56458780006506,[-0.06333333333333334],[0.11666666666666667],[1],[0],[0],[1.0965229000430554],['target'],534755,001,2024-10-07_20h03.29.800,visualsearch,2024.1.5,None,2024-10-07 20h03.35.407349 +0530,
183,0,183,0,405.62017800007015,,405.571049900027,5,405.62017800007015,405.62017800007015,0.027146599953994155,406.5095162000507,[-0.04666666666666667],[0.28],[1],[0],[0],[0.912375999847427],['target'],534755,001,2024-10-07_20h03.29.800,visualsearch,2024.1.5,None,2024-10-07 20h03.35.407349 +0530,
184,0,184,0,406.5689237001352,,406.5145670999773,10,406.5689237001352,406.5689237001352,0.028941000113263726,407.7407442999538,[-0.185],[0.31666666666666665],[1],[0],[0],[1.1976636999752373],['target'],534755,001,2024-10-07_20h03.29.800,visualsearch,2024.1.5,None,2024-10-07 20h03.35.407349 +0530,
185,0,185,0,407.8190795001574,,407.74735700013116,10,407.8190795001574,407.8190795001574,0.037559400079771876,410.28663630015217,[0.4683333333333333],[0.015],[1],[0],[0],[2.5028557998593897],['target'],534755,001,2024-10-07_20h03.29.800,visualsearch,2024.1.5,None,2024-10-07 20h03.35.407349 +0530,
186,0,186,0,410.3166632000357,,410.2893664999865,5,410.3166632000357,410.3166632000357,0.013695700094103813,411.29194639995694,[0.06666666666666667],[-0.09666666666666666],[1],[0],[0],[0.988561199977994],['target'],534755,001,2024-10-07_20h03.29.800,visualsearch,2024.1.5,None,2024-10-07 20h03.35.407349 +0530,
187,0,187,0,411.35017780005,,411.2998172000516,5,411.35017780005,411.35017780005,0.026886300183832645,413.2395858000964,[0.205],[0.17],[1],[0],[0],[1.9140425000805408],[],534755,001,2024-10-07_20h03.29.800,visualsearch,2024.1.5,None,2024-10-07 20h03.35.407349 +0530,
188,0,188,0,413.2815791000612,,413.2470011000987,5,413.2815791000612,413.2815791000612,0.026503599947318435,414.5377609001007,[-0.105],[-0.12],[1],[0],[0],[1.264884099829942],['target'],534755,001,2024-10-07_20h03.29.800,visualsearch,2024.1.5,None,2024-10-07 20h03.35.407349 +0530,
189,0,189,0,414.5808326001279,,414.54488219995983,5,414.5808326001279,414.5808326001279,0.02279500011354685,416.1259914999828,[0.18666666666666668],[0.44166666666666665],[1],[0],[0],[1.558926000026986],['target'],534755,001,2024-10-07_20h03.29.800,visualsearch,2024.1.5,None,2024-10-07 20h03.35.407349 +0530,
190,0,190,0,416.17952689994127,,416.1338796999771,5,416.17952689994127,416.17952689994127,0.023992100032046437,417.40614980016835,[-0.3],[0.055],[1],[0],[0],[1.2490253997966647],['target'],534755,001,2024-10-07_20h03.29.800,visualsearch,2024.1.5,None,2024-10-07 20h03.35.407349 +0530,
191,0,191,0,417.47851680009626,,417.412268999964,10,417.47851680009626,417.47851680009626,0.04007719992659986,419.98284170008264,[0.21666666666666667],[0.25166666666666665],[1],[0],[0],[2.5312916999682784],['target'],534755,001,2024-10-07_20h03.29.800,visualsearch,2024.1.5,None,2024-10-07 20h03.35.407349 +0530,
192,0,192,0,420.02803879999556,,419.986356300069,5,420.02803879999556,420.02803879999556,0.016041799914091825,421.12209130008705,[0.17],[0.4216666666666667],[1],[0],[0],[1.1195380999706686],['target'],534755,001,2024-10-07_20h03.29.800,visualsearch,2024.1.5,None,2024-10-07 20h03.35.407349 +0530,
193,0,193,0,421.16003450006247,,421.1284388001077,5,421.16003450006247,421.16003450006247,0.02006080001592636,422.22211310011335,[0.34833333333333333],[0.13833333333333334],[1],[0],[0],[1.0743444999679923],['target'],534755,001,2024-10-07_20h03.29.800,visualsearch,2024.1.5,None,2024-10-07 20h03.35.407349 +0530,
194,0,194,0,422.2771578000393,,422.2296357001178,5,422.2771578000393,422.2771578000393,0.024238900048658252,423.43743980000727,[0.27166666666666667],[-0.32],[1],[0],[0],[1.1839716001413763],['target'],534755,001,2024-10-07_20h03.29.800,visualsearch,2024.1.5,None,2024-10-07 20h03.35.407349 +0530,
195,0,195,0,423.4929208001122,,423.4457599001471,5,423.4929208001122,423.4929208001122,0.02391269989311695,425.035738900071,[0.43],[0.435],[1],[0],[0],[1.5668589000124484],['target'],534755,001,2024-10-07_20h03.29.800,visualsearch,2024.1.5,None,2024-10-07 20h03.35.407349 +0530,
196,0,196,0,425.1076354000252,,425.0435391999781,10,425.1076354000252,425.1076354000252,0.03427119995467365,427.9263778999448,[0.18],[-0.06333333333333334],[1],[0],[0],[2.8495112999808043],[],534755,001,2024-10-07_20h03.29.800,visualsearch,2024.1.5,None,2024-10-07 20h03.35.407349 +0530,
197,0,197,0,427.97270580008626,,427.92963070003316,5,427.97270580008626,427.97270580008626,0.01588129997253418,429.05053790006787,[-0.235],[0.37166666666666665],[1],[0],[0],[1.104787099873647],['target'],534755,001,2024-10-07_20h03.29.800,visualsearch,2024.1.5,None,2024-10-07 20h03.35.407349 +0530,
198,0,198,0,429.0888871999923,,429.057718800148,5,429.0888871999923,429.0888871999923,0.019724000012502074,430.1648395000957,[-0.47333333333333333],[0.405],[1],[0],[0],[1.088081100024283],['target'],534755,001,2024-10-07_20h03.29.800,visualsearch,2024.1.5,None,2024-10-07 20h03.35.407349 +0530,
199,0,199,0,430.23796860012226,,430.1732884000521,10,430.23796860012226,430.23796860012226,0.03485459997318685,431.1586962000001,[-0.37333333333333335],[0.08333333333333333],[1],[0],[0],[0.9506802998948842],['target'],534755,001,2024-10-07_20h03.29.800,visualsearch,2024.1.5,None,2024-10-07 20h03.35.407349 +0530,
