trials.thisRepN,trials.thisTrialN,trials.thisN,trials.thisIndex,thisRow.t,notes,trial.started,num_distr,fixation.started,target.started,mouse.started,trial.stopped,mouse.x,mouse.y,mouse.leftButton,mouse.midButton,mouse.rightButton,mouse.time,mouse.clicked_name,participant,session,date,expName,psychopyVersion,frameRate,expStart,
0,0,0,0,0.0334927998483181,,0.0048056000377982855,5,0.0334927998483181,0.0334927998483181,0.023743900004774332,1.9522859998978674,[-0.2064814814814815],[-0.36203703703703705],[1],[0],[0],[1.927137800026685],[],713399,001,2024-10-07_20h13.10.287,visualsearch,2024.1.5,None,2024-10-07 20h13.17.467068 +0530,
1,0,1,0,1.9876837998162955,,1.9607681999914348,5,1.9876837998162955,1.9876837998162955,0.021595099940896034,2.973447500029579,[-0.2814814814814815],[-0.3824074074074074],[1],[0],[0],[0.9919396000914276],[],713399,001,2024-10-07_20h13.10.287,visualsearch,2024.1.5,None,2024-10-07 20h13.17.467068 +0530,
2,0,2,0,3.0257037999108434,,2.97929049981758,10,3.0257037999108434,3.0257037999108434,0.03144549997523427,5.221853099996224,[-0.4564814814814815],[0.07407407407407407],[1],[0],[0],[2.2114952001720667],['target'],713399,001,2024-10-07_20h13.10.287,visualsearch,2024.1.5,None,2024-10-07 20h13.17.467068 +0530,
3,0,3,0,5.268929000012577,,5.225400399882346,10,5.268929000012577,5.268929000012577,0.026768899988383055,6.7324106998275965,[0.005555555555555556],[0.43425925925925923],[1],[0],[0],[1.4804422999732196],['target'],713399,001,2024-10-07_20h13.10.287,visualsearch,2024.1.5,None,2024-10-07 20h13.17.467068 +0530,
4,0,4,0,6.75368219986558,,6.735226399963722,5,6.75368219986558,6.75368219986558,0.012798799900338054,7.651686399942264,[0.47129629629629627],[0.40555555555555556],[1],[0],[0],[0.9035513000562787],[],713399,001,2024-10-07_20h13.10.287,visualsearch,2024.1.5,None,2024-10-07 20h13.17.467068 +0530,
5,0,5,0,7.6774035999551415,,7.656477999873459,5,7.6774035999551415,7.6774035999551415,0.015771000180393457,9.246959300013259,[-0.06944444444444445],[-0.38981481481481484],[1],[0],[0],[1.5747666000388563],['target'],713399,001,2024-10-07_20h13.10.287,visualsearch,2024.1.5,None,2024-10-07 20h13.17.467068 +0530,
6,0,6,0,9.278411400038749,,9.25259089982137,5,9.278411400038749,9.278411400038749,0.01965959998778999,10.463261999888346,[0.337037037037037],[0.22685185185185186],[1],[0],[0],[1.1913987000007182],['target'],713399,001,2024-10-07_20h13.10.287,visualsearch,2024.1.5,None,2024-10-07 20h13.17.467068 +0530,
7,0,7,0,10.511963999830186,,10.469433899968863,10,10.511963999830186,10.511963999830186,0.03102210001088679,11.966545699862763,[0.016666666666666666],[-0.08796296296296297],[1],[0],[0],[1.466368299908936],['target'],713399,001,2024-10-07_20h13.10.287,visualsearch,2024.1.5,None,2024-10-07 20h13.17.467068 +0530,
8,0,8,0,12.020735800033435,,11.970503599848598,10,12.020735800033435,12.020735800033435,0.03317960002459586,13.72728700004518,[-0.10740740740740741],[0.11388888888888889],[1],[0],[0],[1.7238668000791222],[],713399,001,2024-10-07_20h13.10.287,visualsearch,2024.1.5,None,2024-10-07 20h13.17.467068 +0530,
9,0,9,0,13.778326899977401,,13.730064299888909,10,13.778326899977401,13.778326899977401,0.026008700020611286,15.304733699886128,[-0.15833333333333333],[-0.15092592592592594],[1],[0],[0],[1.5487253998871893],['target'],713399,001,2024-10-07_20h13.10.287,visualsearch,2024.1.5,None,2024-10-07 20h13.17.467068 +0530,
10,0,10,0,15.328837999841198,,15.309094799915329,5,15.328837999841198,15.328837999841198,0.014121599961072206,16.427041799994186,[0.20277777777777778],[-0.07222222222222222],[1],[0],[0],[1.103156799916178],['target'],713399,001,2024-10-07_20h13.10.287,visualsearch,2024.1.5,None,2024-10-07 20h13.17.467068 +0530,
11,0,11,0,16.486569999950007,,16.433112500002608,10,16.486569999950007,16.486569999950007,0.042698999866843224,17.806978299980983,[-0.2],[-0.20185185185185187],[1],[0],[0],[1.3319363999180496],['target'],713399,001,2024-10-07_20h13.10.287,visualsearch,2024.1.5,None,2024-10-07 20h13.17.467068 +0530,
12,0,12,0,17.851023099850863,,17.809778800001368,10,17.851023099850863,17.851023099850863,0.02404439984820783,19.87743019987829,[0.2962962962962963],[0.1712962962962963],[1],[0],[0],[2.0437250998802483],[],713399,001,2024-10-07_20h13.10.287,visualsearch,2024.1.5,None,2024-10-07 20h13.17.467068 +0530,
13,0,13,0,19.936830200022087,,19.88114960002713,10,19.936830200022087,19.936830200022087,0.03155219997279346,23.086725199827924,[-0.29907407407407405],[-0.4351851851851852],[1],[0],[0],[3.1741890001576394],['target'],713399,001,2024-10-07_20h13.10.287,visualsearch,2024.1.5,None,2024-10-07 20h13.17.467068 +0530,
14,0,14,0,23.145520699908957,,23.091396000003442,10,23.145520699908957,23.145520699908957,0.029247900005429983,25.021369699854404,[0.33425925925925926],[-0.13518518518518519],[1],[0],[0],[1.9012420000508428],['target'],713399,001,2024-10-07_20h13.10.287,visualsearch,2024.1.5,None,2024-10-07 20h13.17.467068 +0530,
15,0,15,0,25.047758999979123,,25.025117199867964,5,25.047758999979123,25.047758999979123,0.016225800151005387,26.375022599939257,[-0.08055555555555556],[0.1712962962962963],[1],[0],[0],[1.3327073000837117],['target'],713399,001,2024-10-07_20h13.10.287,visualsearch,2024.1.5,None,2024-10-07 20h13.17.467068 +0530,
16,0,16,0,26.424737199908122,,26.380571000045165,10,26.424737199908122,26.424737199908122,0.02955490001477301,29.133376499870792,[0.19166666666666668],[0.42962962962962964],[1],[0],[0],[2.7238503999542445],['target'],713399,001,2024-10-07_20h13.10.287,visualsearch,2024.1.5,None,2024-10-07 20h13.17.467068 +0530,
17,0,17,0,29.18341810000129,,29.136716600041837,10,29.18341810000129,29.18341810000129,0.030496299965307117,30.570770799880847,[0.3148148148148148],[0.05648148148148148],[1],[0],[0],[1.40376319992356],['target'],713399,001,2024-10-07_20h13.10.287,visualsearch,2024.1.5,None,2024-10-07 20h13.17.467068 +0530,
18,0,18,0,30.626452199881896,,30.573718499857932,10,30.626452199881896,30.626452199881896,0.029717299854382873,34.090307999867946,[-0.44351851851851853],[-0.32037037037037036],[1],[0],[0],[3.4870025999844074],['target'],713399,001,2024-10-07_20h13.10.287,visualsearch,2024.1.5,None,2024-10-07 20h13.17.467068 +0530,
19,0,19,0,34.15204879990779,,34.09560649981722,10,34.15204879990779,34.15204879990779,0.027438400080427527,36.49681859998964,[-0.21296296296296297],[0.2972222222222222],[1],[0],[0],[2.373892999952659],['target'],713399,001,2024-10-07_20h13.10.287,visualsearch,2024.1.5,None,2024-10-07 20h13.17.467068 +0530,
20,0,20,0,36.51982089993544,,36.5000226998236,5,36.51982089993544,36.51982089993544,0.01319510000757873,38.19844379997812,[0.47129629629629627],[-0.17314814814814813],[1],[0],[0],[1.685354100074619],['target'],713399,001,2024-10-07_20h13.10.287,visualsearch,2024.1.5,None,2024-10-07 20h13.17.467068 +0530,
21,0,21,0,38.25192459998652,,38.20262739993632,10,38.25192459998652,38.25192459998652,0.03722029994241893,39.49302289984189,[0.08518518518518518],[0.026851851851851852],[1],[0],[0],[1.2536595000419766],['target'],713399,001,2024-10-07_20h13.10.287,visualsearch,2024.1.5,None,2024-10-07 20h13.17.467068 +0530,
22,0,22,0,39.538074699928984,,39.49614349985495,10,39.538074699928984,39.538074699928984,0.025082599837332964,40.587039599893615,[0.2361111111111111],[0.06851851851851852],[1],[0],[0],[1.0660584999714047],['target'],713399,001,2024-10-07_20h13.10.287,visualsearch,2024.1.5,None,2024-10-07 20h13.17.467068 +0530,
23,0,23,0,40.66602459992282,,40.59110730001703,10,40.66602459992282,40.66602459992282,0.04006069991737604,43.98484709998593,[-0.3731481481481482],[-0.25],[1],[0],[0],[3.353859599912539],['target'],713399,001,2024-10-07_20h13.10.287,visualsearch,2024.1.5,None,2024-10-07 20h13.17.467068 +0530,
24,0,24,0,44.05200559995137,,43.988071399973705,10,44.05200559995137,44.05200559995137,0.034206500044092536,45.16294059995562,[0.08981481481481482],[-0.06481481481481481],[1],[0],[0],[1.1409485000185668],['target'],713399,001,2024-10-07_20h13.10.287,visualsearch,2024.1.5,None,2024-10-07 20h13.17.467068 +0530,
25,0,25,0,45.187476199818775,,45.166642899857834,5,45.187476199818775,45.187476199818775,0.014039099914953113,46.42718019988388,[-0.3814814814814815],[0.2537037037037037],[1],[0],[0],[1.246559499995783],['target'],713399,001,2024-10-07_20h13.10.287,visualsearch,2024.1.5,None,2024-10-07 20h13.17.467068 +0530,
26,0,26,0,46.46618300001137,,46.43296939996071,5,46.46618300001137,46.46618300001137,0.02638150006532669,47.68979529989883,[0.3490740740740741],[-0.15555555555555556],[1],[0],[0],[1.2304066999349743],['target'],713399,001,2024-10-07_20h13.10.287,visualsearch,2024.1.5,None,2024-10-07 20h13.17.467068 +0530,
27,0,27,0,47.72344219987281,,47.69630219996907,5,47.72344219987281,47.72344219987281,0.02105069998651743,48.72455759998411,[0.03981481481481482],[0.03796296296296296],[1],[0],[0],[1.007921100128442],['target'],713399,001,2024-10-07_20h13.10.287,visualsearch,2024.1.5,None,2024-10-07 20h13.17.467068 +0530,
28,0,28,0,48.76171849993989,,48.731960699893534,5,48.76171849993989,48.76171849993989,0.02493039984256029,49.80439299996942,[0.11203703703703703],[-0.27685185185185185],[1],[0],[0],[1.0481254998594522],['target'],713399,001,2024-10-07_20h13.10.287,visualsearch,2024.1.5,None,2024-10-07 20h13.17.467068 +0530,
29,0,29,0,49.83832539990544,,49.811420699814335,5,49.83832539990544,49.83832539990544,0.0203273999504745,51.25393270002678,[0.44537037037037036],[0.12314814814814815],[1],[0],[0],[1.4228941998444498],['target'],713399,001,2024-10-07_20h13.10.287,visualsearch,2024.1.5,None,2024-10-07 20h13.17.467068 +0530,
30,0,30,0,51.307789199985564,,51.25949259987101,10,51.307789199985564,51.307789199985564,0.03666500002145767,53.42687139986083,[-0.462037037037037],[0.32037037037037036],[1],[0],[0],[2.131532199913636],['target'],713399,001,2024-10-07_20h13.10.287,visualsearch,2024.1.5,None,2024-10-07 20h13.17.467068 +0530,
31,0,31,0,53.45453620003536,,53.430567199829966,5,53.45453620003536,53.45453620003536,0.017675300128757954,54.78519289987162,[-0.4601851851851852],[0.45092592592592595],[1],[0],[0],[1.3371705999597907],['target'],713399,001,2024-10-07_20h13.10.287,visualsearch,2024.1.5,None,2024-10-07 20h13.17.467068 +0530,
32,0,32,0,54.84091109992005,,54.79013550002128,10,54.84091109992005,54.84091109992005,0.0387079999782145,55.98838429991156,[0.05],[0.16018518518518518],[1],[0],[0],[1.160414099926129],['target'],713399,001,2024-10-07_20h13.10.287,visualsearch,2024.1.5,None,2024-10-07 20h13.17.467068 +0530,
33,0,33,0,56.04534749989398,,55.991656800033525,10,56.04534749989398,56.04534749989398,0.03677690005861223,57.21784899989143,[-0.13240740740740742],[0.26296296296296295],[1],[0],[0],[1.1896473001688719],['target'],713399,001,2024-10-07_20h13.10.287,visualsearch,2024.1.5,None,2024-10-07 20h13.17.467068 +0530,
34,0,34,0,57.240662100026384,,57.220684699947014,5,57.240662100026384,57.240662100026384,0.013687399914488196,58.31947649992071,[0.17407407407407408],[-0.12037037037037036],[1],[0],[0],[1.0847823000513017],['target'],713399,001,2024-10-07_20h13.10.287,visualsearch,2024.1.5,None,2024-10-07 20h13.17.467068 +0530,
35,0,35,0,58.37151800002903,,58.32653889991343,10,58.37151800002903,58.37151800002903,0.03286010003648698,63.77782189985737,[0.027777777777777776],[-0.018518518518518517],[1],[0],[0],[5.419407099951059],[],713399,001,2024-10-07_20h13.10.287,visualsearch,2024.1.5,None,2024-10-07 20h13.17.467068 +0530,
36,0,36,0,63.80593769997358,,63.78154610004276,5,63.80593769997358,63.80593769997358,0.01763239991851151,64.96571479993872,[-0.3212962962962963],[0.4740740740740741],[1],[0],[0],[1.1664065001532435],['target'],713399,001,2024-10-07_20h13.10.287,visualsearch,2024.1.5,None,2024-10-07 20h13.17.467068 +0530,
37,0,37,0,65.00195609987713,,64.97107729990967,5,65.00195609987713,65.00195609987713,0.021088399924337864,66.7439973000437,[0.45185185185185184],[0.48333333333333334],[1],[0],[0],[1.7519944999366999],['target'],713399,001,2024-10-07_20h13.10.287,visualsearch,2024.1.5,None,2024-10-07 20h13.17.467068 +0530,
38,0,38,0,66.77265960001387,,66.74993179994635,5,66.77265960001387,66.77265960001387,0.017287699971348047,68.10932469996624,[-0.32685185185185184],[0.09444444444444444],[1],[0],[0],[1.342453399905935],['target'],713399,001,2024-10-07_20h13.10.287,visualsearch,2024.1.5,None,2024-10-07 20h13.17.467068 +0530,
39,0,39,0,68.13975770003162,,68.11548539996147,5,68.13975770003162,68.13975770003162,0.01849199994467199,70.20998979988508,[-0.4027777777777778],[-0.32314814814814813],[1],[0],[0],[2.0764128000009805],['target'],713399,001,2024-10-07_20h13.10.287,visualsearch,2024.1.5,None,2024-10-07 20h13.17.467068 +0530,
40,0,40,0,70.23581620003097,,70.21432499983348,5,70.23581620003097,70.23581620003097,0.014807900181040168,71.62733869999647,[-0.012962962962962963],[-0.3138888888888889],[1],[0],[0],[1.3983698000665754],['target'],713399,001,2024-10-07_20h13.10.287,visualsearch,2024.1.5,None,2024-10-07 20h13.17.467068 +0530,
41,0,41,0,71.66902909986675,,71.63105840003118,10,71.66902909986675,71.66902909986675,0.025996100157499313,72.72636749991216,[0.10833333333333334],[0.06666666666666667],[1],[0],[0],[1.069504499901086],['target'],713399,001,2024-10-07_20h13.10.287,visualsearch,2024.1.5,None,2024-10-07 20h13.17.467068 +0530,
42,0,42,0,72.753194199875,,72.73154029995203,5,72.753194199875,72.753194199875,0.01673050015233457,73.34012879990041,[0.1037037037037037],[0.06018518518518518],[1],[0],[0],[0.592382499948144],['target'],713399,001,2024-10-07_20h13.10.287,visualsearch,2024.1.5,None,2024-10-07 20h13.17.467068 +0530,
43,0,43,0,73.37076679989696,,73.34669669996947,5,73.37076679989696,73.37076679989696,0.01820569997653365,74.23979509994388,[0.10277777777777777],[0.19444444444444445],[1],[0],[0],[0.8749589000362903],['target'],713399,001,2024-10-07_20h13.10.287,visualsearch,2024.1.5,None,2024-10-07 20h13.17.467068 +0530,
44,0,44,0,74.29457669984549,,74.24532099999487,10,74.29457669984549,74.29457669984549,0.036056100158020854,75.8791056999471,[-0.32685185185185184],[0.16944444444444445],[1],[0],[0],[1.5978381000459194],['target'],713399,001,2024-10-07_20h13.10.287,visualsearch,2024.1.5,None,2024-10-07 20h13.17.467068 +0530,
45,0,45,0,75.92854529991746,,75.88230399996974,10,75.92854529991746,75.92854529991746,0.028931300155818462,78.10979789984412,[0.3101851851851852],[0.44166666666666665],[1],[0],[0],[2.1987853997852653],['target'],713399,001,2024-10-07_20h13.10.287,visualsearch,2024.1.5,None,2024-10-07 20h13.17.467068 +0530,
46,0,46,0,78.16913259983994,,78.11344529991038,10,78.16913259983994,78.16913259983994,0.030086399987339973,79.68586359987967,[0.3990740740740741],[-0.09351851851851851],[1],[0],[0],[1.542555599939078],['target'],713399,001,2024-10-07_20h13.10.287,visualsearch,2024.1.5,None,2024-10-07 20h13.17.467068 +0530,
47,0,47,0,79.74068889999762,,79.68879879987799,10,79.74068889999762,79.74068889999762,0.025187399936839938,83.02285879990086,[0.12314814814814815],[-0.325],[1],[0],[0],[3.3089413999114186],['target'],713399,001,2024-10-07_20h13.10.287,visualsearch,2024.1.5,None,2024-10-07 20h13.17.467068 +0530,
48,0,48,0,83.08525449992158,,83.02571129985154,10,83.08525449992158,83.08525449992158,0.02693750010803342,84.74500049999915,[-0.25277777777777777],[0.3990740740740741],[1],[0],[0],[1.6924795999657363],['target'],713399,001,2024-10-07_20h13.10.287,visualsearch,2024.1.5,None,2024-10-07 20h13.17.467068 +0530,
49,0,49,0,84.77336949994788,,84.74938229983672,5,84.77336949994788,84.77336949994788,0.018394999904558063,86.20161089999601,[0.20925925925925926],[0.5],[1],[0],[0],[1.4339977998752147],['target'],713399,001,2024-10-07_20h13.10.287,visualsearch,2024.1.5,None,2024-10-07 20h13.17.467068 +0530,
50,0,50,0,86.25170609983616,,86.20807389984839,10,86.25170609983616,86.25170609983616,0.03317670011892915,88.03702980000526,[0.275],[-0.20925925925925926],[1],[0],[0],[1.7966070999391377],['target'],713399,001,2024-10-07_20h13.10.287,visualsearch,2024.1.5,None,2024-10-07 20h13.17.467068 +0530,
51,0,51,0,88.06076300004497,,88.04079639981501,5,88.06076300004497,88.06076300004497,0.013920800061896443,90.61142789991572,[0.012962962962962963],[0.4824074074074074],[1],[0],[0],[2.5567413999233395],['target'],713399,001,2024-10-07_20h13.10.287,visualsearch,2024.1.5,None,2024-10-07 20h13.17.467068 +0530,
52,0,52,0,90.63641769997776,,90.6160583999008,5,90.63641769997776,90.63641769997776,0.014903899980708957,91.72751270001754,[-0.009259259259259259],[0.2222222222222222],[1],[0],[0],[1.0968756000511348],['target'],713399,001,2024-10-07_20h13.10.287,visualsearch,2024.1.5,None,2024-10-07 20h13.17.467068 +0530,
53,0,53,0,91.7712232999038,,91.73177960002795,10,91.7712232999038,91.7712232999038,0.0272253998555243,94.09202830004506,[0.019444444444444445],[-0.3861111111111111],[1],[0],[0],[2.33342370018363],['target'],713399,001,2024-10-07_20h13.10.287,visualsearch,2024.1.5,None,2024-10-07 20h13.17.467068 +0530,
54,0,54,0,94.14273789990693,,94.09543959982693,10,94.14273789990693,94.14273789990693,0.030812100041657686,98.62851179996505,[-0.42407407407407405],[0.07592592592592592],[1],[0],[0],[4.502137999981642],['target'],713399,001,2024-10-07_20h13.10.287,visualsearch,2024.1.5,None,2024-10-07 20h13.17.467068 +0530,
55,0,55,0,98.68524809996597,,98.63209760002792,10,98.68524809996597,98.68524809996597,0.025441700126975775,99.34260590001941,[-0.42407407407407405],[0.07592592592592592],[1],[0],[0],[0.6852417998015881],['target'],713399,001,2024-10-07_20h13.10.287,visualsearch,2024.1.5,None,2024-10-07 20h13.17.467068 +0530,
56,0,56,0,99.37043399992399,,99.3470890999306,5,99.37043399992399,99.37043399992399,0.01642220001667738,101.95756309991702,[-0.42592592592592593],[0.39444444444444443],[1],[0],[0],[2.594398200046271],[],713399,001,2024-10-07_20h13.10.287,visualsearch,2024.1.5,None,2024-10-07 20h13.17.467068 +0530,
57,0,57,0,102.0109098998364,,101.96285429992713,10,102.0109098998364,102.0109098998364,0.03791620000265539,102.88618079992011,[-0.35185185185185186],[0.4212962962962963],[1],[0],[0],[0.8862075998913497],['target'],713399,001,2024-10-07_20h13.10.287,visualsearch,2024.1.5,None,2024-10-07 20h13.17.467068 +0530,
58,0,58,0,102.9073769999668,,102.88901499984786,5,102.9073769999668,102.9073769999668,0.012534300098195672,104.71979000000283,[-0.19166666666666668],[-0.1],[1],[0],[0],[1.8181355998385698],[],713399,001,2024-10-07_20h13.10.287,visualsearch,2024.1.5,None,2024-10-07 20h13.17.467068 +0530,
59,0,59,0,104.76414370001294,,104.72508559981361,10,104.76414370001294,104.76414370001294,0.027980699902400374,106.53704759990796,[0.05648148148148148],[-0.24074074074074073],[1],[0],[0],[1.7845942000858486],['target'],713399,001,2024-10-07_20h13.10.287,visualsearch,2024.1.5,None,2024-10-07 20h13.17.467068 +0530,
60,0,60,0,106.57196349999867,,106.54143360001035,5,106.57196349999867,106.57196349999867,0.02102699992246926,108.03447319986299,[-0.09444444444444444],[0.16203703703703703],[1],[0],[0],[1.472287899814546],['target'],713399,001,2024-10-07_20h13.10.287,visualsearch,2024.1.5,None,2024-10-07 20h13.17.467068 +0530,
61,0,61,0,108.08010219992138,,108.03983589983545,10,108.08010219992138,108.08010219992138,0.02893269993364811,109.39898890000768,[0.29259259259259257],[-0.002777777777777778],[1],[0],[0],[1.3309236001223326],['target'],713399,001,2024-10-07_20h13.10.287,visualsearch,2024.1.5,None,2024-10-07 20h13.17.467068 +0530,
62,0,62,0,109.4279926000163,,109.40293350000866,5,109.4279926000163,109.4279926000163,0.01874390011653304,110.54881790000945,[0.2722222222222222],[0.2518518518518518],[1],[0],[0],[1.1273626999463886],['target'],713399,001,2024-10-07_20h13.10.287,visualsearch,2024.1.5,None,2024-10-07 20h13.17.467068 +0530,
63,0,63,0,110.59132159990259,,110.55393569986336,5,110.59132159990259,110.59132159990259,0.028610399924218655,111.4646951998584,[0.23425925925925925],[0.17592592592592593],[1],[0],[0],[0.8827524001244456],['target'],713399,001,2024-10-07_20h13.10.287,visualsearch,2024.1.5,None,2024-10-07 20h13.17.467068 +0530,
64,0,64,0,111.50567430001684,,111.46866809995845,10,111.50567430001684,111.50567430001684,0.025121299782767892,114.98918120004237,[-0.15925925925925927],[0.06111111111111111],[1],[0],[0],[3.495664600050077],[],713399,001,2024-10-07_20h13.10.287,visualsearch,2024.1.5,None,2024-10-07 20h13.17.467068 +0530,
65,0,65,0,115.04114999994636,,114.99517969996668,10,115.04114999994636,115.04114999994636,0.0312689000274986,117.34666189993732,[-0.487962962962963],[0.4351851851851852],[1],[0],[0],[2.320890799863264],['target'],713399,001,2024-10-07_20h13.10.287,visualsearch,2024.1.5,None,2024-10-07 20h13.17.467068 +0530,
66,0,66,0,117.3972616000101,,117.35117349983193,10,117.3972616000101,117.3972616000101,0.025476600043475628,118.7146228000056,[-0.2574074074074074],[0.2],[1],[0],[0],[1.3384040999226272],['target'],713399,001,2024-10-07_20h13.10.287,visualsearch,2024.1.5,None,2024-10-07 20h13.17.467068 +0530,
67,0,67,0,118.73650669981726,,118.71754710003734,5,118.73650669981726,118.73650669981726,0.01313890004530549,119.99388849991374,[-0.14074074074074075],[0.1287037037037037],[1],[0],[0],[1.263036800082773],['target'],713399,001,2024-10-07_20h13.10.287,visualsearch,2024.1.5,None,2024-10-07 20h13.17.467068 +0530,
68,0,68,0,120.01988909998909,,119.99866829998791,5,120.01988909998909,120.01988909998909,0.015673999907448888,121.92489339993335,[-0.44722222222222224],[-0.36944444444444446],[1],[0],[0],[1.910737399943173],['target'],713399,001,2024-10-07_20h13.10.287,visualsearch,2024.1.5,None,2024-10-07 20h13.17.467068 +0530,
69,0,69,0,121.9707299999427,,121.92953409999609,10,121.9707299999427,121.9707299999427,0.030134399887174368,124.10928119998425,[0.38333333333333336],[0.4212962962962963],[1],[0],[0],[2.150347800226882],['target'],713399,001,2024-10-07_20h13.10.287,visualsearch,2024.1.5,None,2024-10-07 20h13.17.467068 +0530,
70,0,70,0,124.1298753998708,,124.11201169993728,5,124.1298753998708,124.1298753998708,0.012713199947029352,125.35073119984008,[0.14166666666666666],[0.13148148148148148],[1],[0],[0],[1.225618700031191],['target'],713399,001,2024-10-07_20h13.10.287,visualsearch,2024.1.5,None,2024-10-07 20h13.17.467068 +0530,
71,0,71,0,125.39799780002795,,125.35741880000569,10,125.39799780002795,125.39799780002795,0.030688900034874678,126.57425669999793,[0.05555555555555555],[0.20925925925925926],[1],[0],[0],[1.1872165000531822],['target'],713399,001,2024-10-07_20h13.10.287,visualsearch,2024.1.5,None,2024-10-07 20h13.17.467068 +0530,
72,0,72,0,126.629033499863,,126.57745300000533,10,126.629033499863,126.629033499863,0.03245649999007583,128.93281329981983,[0.48333333333333334],[-0.3416666666666667],[1],[0],[0],[2.3225922998972237],['target'],713399,001,2024-10-07_20h13.10.287,visualsearch,2024.1.5,None,2024-10-07 20h13.17.467068 +0530,
73,0,73,0,128.99198199994862,,128.94020770001225,10,128.99198199994862,128.99198199994862,0.030093500157818198,130.931796599878,[-0.49444444444444446],[0.3194444444444444],[1],[0],[0],[1.962257499806583],['target'],713399,001,2024-10-07_20h13.10.287,visualsearch,2024.1.5,None,2024-10-07 20h13.17.467068 +0530,
74,0,74,0,130.95536849997006,,130.93539569992572,5,130.95536849997006,130.95536849997006,0.013925099978223443,133.10251909983344,[-0.3388888888888889],[-0.43148148148148147],[1],[0],[0],[2.153036299860105],['target'],713399,001,2024-10-07_20h13.10.287,visualsearch,2024.1.5,None,2024-10-07 20h13.17.467068 +0530,
75,0,75,0,133.15521329990588,,133.10908189998008,10,133.15521329990588,133.15521329990588,0.035073400009423494,135.18910059984773,[-0.43333333333333335],[-0.4287037037037037],[1],[0],[0],[2.0455910000018775],['target'],713399,001,2024-10-07_20h13.10.287,visualsearch,2024.1.5,None,2024-10-07 20h13.17.467068 +0530,
76,0,76,0,135.24425400001928,,135.19359129993245,10,135.24425400001928,135.24425400001928,0.03369179996661842,136.40019649988972,[-0.2175925925925926],[0.023148148148148147],[1],[0],[0],[1.1735602000262588],['target'],713399,001,2024-10-07_20h13.10.287,visualsearch,2024.1.5,None,2024-10-07 20h13.17.467068 +0530,
77,0,77,0,136.4605572000146,,136.40333450003527,10,136.4605572000146,136.4605572000146,0.03010340011678636,137.39983499981463,[-0.053703703703703705],[-0.06388888888888888],[1],[0],[0],[0.966634500073269],['target'],713399,001,2024-10-07_20h13.10.287,visualsearch,2024.1.5,None,2024-10-07 20h13.17.467068 +0530,
78,0,78,0,137.42210510000587,,137.40268479986116,5,137.42210510000587,137.42210510000587,0.013138899812474847,138.4515311999712,[-0.3333333333333333],[-0.1287037037037037],[1],[0],[0],[1.0355936998967081],['target'],713399,001,2024-10-07_20h13.10.287,visualsearch,2024.1.5,None,2024-10-07 20h13.17.467068 +0530,
79,0,79,0,138.510331899859,,138.45899579999968,10,138.510331899859,138.510331899859,0.040873799938708544,139.9967811999377,[0.3453703703703704],[-0.3611111111111111],[1],[0],[0],[1.4977808999828994],['target'],713399,001,2024-10-07_20h13.10.287,visualsearch,2024.1.5,None,2024-10-07 20h13.17.467068 +0530,
80,0,80,0,140.02786779985763,,140.00136410002597,5,140.02786779985763,140.02786779985763,0.018386200070381165,141.6295725000091,[0.013888888888888888],[0.2814814814814815],[1],[0],[0],[1.6103117000311613],['target'],713399,001,2024-10-07_20h13.10.287,visualsearch,2024.1.5,None,2024-10-07 20h13.17.467068 +0530,
81,0,81,0,141.6620120999869,,141.63529999996535,5,141.6620120999869,141.6620120999869,0.020999199943616986,142.930582099827,[0.17685185185185184],[0.3509259259259259],[1],[0],[0],[1.2747012998443097],['target'],713399,001,2024-10-07_20h13.10.287,visualsearch,2024.1.5,None,2024-10-07 20h13.17.467068 +0530,
82,0,82,0,142.9573571998626,,142.93567519984208,5,142.9573571998626,142.9573571998626,0.016340099973604083,143.9947511998471,[0.09907407407407408],[0.21666666666666667],[1],[0],[0],[1.0425529999192804],['target'],713399,001,2024-10-07_20h13.10.287,visualsearch,2024.1.5,None,2024-10-07 20h13.17.467068 +0530,
83,0,83,0,144.04083309997804,,144.00007199984975,10,144.04083309997804,144.04083309997804,0.02948689996264875,147.09551050001755,[-0.18796296296296297],[-0.32592592592592595],[1],[0],[0],[3.066514499951154],['target'],713399,001,2024-10-07_20h13.10.287,visualsearch,2024.1.5,None,2024-10-07 20h13.17.467068 +0530,
84,0,84,0,147.12541099986993,,147.09992179996334,5,147.12541099986993,147.12541099986993,0.019077999982982874,150.80662549985573,[0.2101851851851852],[0.4638888888888889],[1],[0],[0],[3.6880751999560744],['target'],713399,001,2024-10-07_20h13.10.287,visualsearch,2024.1.5,None,2024-10-07 20h13.17.467068 +0530,
85,0,85,0,150.83092969981954,,150.81016670004465,5,150.83092969981954,150.83092969981954,0.014647699892520905,152.20639339997433,[0.17685185185185184],[0.2],[1],[0],[0],[1.3814160998445004],['target'],713399,001,2024-10-07_20h13.10.287,visualsearch,2024.1.5,None,2024-10-07 20h13.17.467068 +0530,
86,0,86,0,152.26013930002227,,152.2132563998457,10,152.26013930002227,152.26013930002227,0.025991700123995543,154.03775779996067,[0.2935185185185185],[-0.34074074074074073],[1],[0],[0],[1.7995970000047237],['target'],713399,001,2024-10-07_20h13.10.287,visualsearch,2024.1.5,None,2024-10-07 20h13.17.467068 +0530,
87,0,87,0,154.0597302999813,,154.04062039987184,5,154.0597302999813,154.0597302999813,0.012912899954244494,155.57058029994369,[0.3388888888888889],[0.30925925925925923],[1],[0],[0],[1.516903700074181],['target'],713399,001,2024-10-07_20h13.10.287,visualsearch,2024.1.5,None,2024-10-07 20h13.17.467068 +0530,
88,0,88,0,155.62628249987029,,155.57543689990416,10,155.62628249987029,155.62628249987029,0.03991839988157153,156.1543467999436,[0.3388888888888889],[0.30925925925925923],[1],[0],[0],[0.5399410999380052],['target'],713399,001,2024-10-07_20h13.10.287,visualsearch,2024.1.5,None,2024-10-07 20h13.17.467068 +0530,
89,0,89,0,156.19816559995525,,156.15732080000453,10,156.19816559995525,156.19816559995525,0.024540700018405914,158.3293461999856,[-0.5074074074074074],[0.20185185185185187],[1],[0],[0],[2.1474502000492066],['target'],713399,001,2024-10-07_20h13.10.287,visualsearch,2024.1.5,None,2024-10-07 20h13.17.467068 +0530,
90,0,90,0,158.38256109994836,,158.33444529981352,10,158.38256109994836,158.38256109994836,0.027638799976557493,160.63000310002826,[-0.5138888888888888],[-0.18888888888888888],[1],[0],[0],[2.2683623998891562],['target'],713399,001,2024-10-07_20h13.10.287,visualsearch,2024.1.5,None,2024-10-07 20h13.17.467068 +0530,
91,0,91,0,160.6521798998583,,160.633043800015,5,160.6521798998583,160.6521798998583,0.012502399971708655,162.2002715000417,[-0.35462962962962963],[0.34629629629629627],[1],[0],[0],[1.554664600174874],['target'],713399,001,2024-10-07_20h13.10.287,visualsearch,2024.1.5,None,2024-10-07 20h13.17.467068 +0530,
92,0,92,0,162.23856589989737,,162.20689060003497,5,162.23856589989737,162.23856589989737,0.02350239991210401,163.73198519996367,[0.09351851851851851],[-0.053703703703703705],[1],[0],[0],[1.5022317999973893],['target'],713399,001,2024-10-07_20h13.10.287,visualsearch,2024.1.5,None,2024-10-07 20h13.17.467068 +0530,
93,0,93,0,163.76543010002933,,163.7383357998915,5,163.76543010002933,163.76543010002933,0.02084330003708601,165.96333709987812,[0.18796296296296297],[0.412962962962963],[1],[0],[0],[2.2048951000906527],['target'],713399,001,2024-10-07_20h13.10.287,visualsearch,2024.1.5,None,2024-10-07 20h13.17.467068 +0530,
94,0,94,0,166.00380990002304,,165.9681809998583,5,166.00380990002304,166.00380990002304,0.026217899983748794,167.14600629988126,[0.06388888888888888],[0.36018518518518516],[1],[0],[0],[1.1520642000250518],['target'],713399,001,2024-10-07_20h13.10.287,visualsearch,2024.1.5,None,2024-10-07 20h13.17.467068 +0530,
95,0,95,0,167.1861594999209,,167.15132960001938,5,167.1861594999209,167.1861594999209,0.02587530016899109,168.31592339999042,[-0.32407407407407407],[0.2490740740740741],[1],[0],[0],[1.1391703998669982],['target'],713399,001,2024-10-07_20h13.10.287,visualsearch,2024.1.5,None,2024-10-07 20h13.17.467068 +0530,
96,0,96,0,168.3687692999374,,168.3225483999122,10,168.3687692999374,168.3687692999374,0.03508040006272495,169.98778490000404,[0.48518518518518516],[0.1527777777777778],[1],[0],[0],[1.6311417000833899],['target'],713399,001,2024-10-07_20h13.10.287,visualsearch,2024.1.5,None,2024-10-07 20h13.17.467068 +0530,
97,0,97,0,170.01927319983952,,169.99245789996348,5,170.01927319983952,170.01927319983952,0.021399499848484993,171.10031839995645,[-0.010185185185185186],[0.17222222222222222],[1],[0],[0],[1.0868675999809057],['target'],713399,001,2024-10-07_20h13.10.287,visualsearch,2024.1.5,None,2024-10-07 20h13.17.467068 +0530,
98,0,98,0,171.13185029989108,,171.10656640003435,5,171.13185029989108,171.13185029989108,0.019351299852132797,171.94694339996204,[0.287962962962963],[0.10555555555555556],[1],[0],[0],[0.821639799978584],['target'],713399,001,2024-10-07_20h13.10.287,visualsearch,2024.1.5,None,2024-10-07 20h13.17.467068 +0530,
99,0,99,0,171.99365239986219,,171.9516743000131,10,171.99365239986219,171.99365239986219,0.027984099928289652,173.65764749981463,[0.2712962962962963],[-0.2657407407407407],[1],[0],[0],[1.6783362999558449],['target'],713399,001,2024-10-07_20h13.10.287,visualsearch,2024.1.5,None,2024-10-07 20h13.17.467068 +0530,
100,0,100,0,173.6904902998358,,173.66111220000312,5,173.6904902998358,173.6904902998358,0.020391699858009815,174.8593617998995,[-0.20925925925925926],[-0.07962962962962963],[1],[0],[0],[1.1777232000604272],['target'],713399,001,2024-10-07_20h13.10.287,visualsearch,2024.1.5,None,2024-10-07 20h13.17.467068 +0530,
101,0,101,0,174.90892870002426,,174.8659726998303,10,174.90892870002426,174.90892870002426,0.03224100009538233,176.52266789996065,[-0.10092592592592593],[0.3416666666666667],[1],[0],[0],[1.6255438001826406],['target'],713399,001,2024-10-07_20h13.10.287,visualsearch,2024.1.5,None,2024-10-07 20h13.17.467068 +0530,
102,0,102,0,176.55805490002967,,176.52614569989964,5,176.55805490002967,176.55805490002967,0.021807400044053793,177.56168669997714,[0.42314814814814816],[0.48055555555555557],[1],[0],[0],[1.0136944002006203],['target'],713399,001,2024-10-07_20h13.10.287,visualsearch,2024.1.5,None,2024-10-07 20h13.17.467068 +0530,
103,0,103,0,177.59503129986115,,177.5689023998566,5,177.59503129986115,177.59503129986115,0.020786100067198277,178.490370699903,[0.42777777777777776],[-0.07222222222222222],[1],[0],[0],[0.9012992000207305],['target'],713399,001,2024-10-07_20h13.10.287,visualsearch,2024.1.5,None,2024-10-07 20h13.17.467068 +0530,
104,0,104,0,178.53615429997444,,178.4971874000039,5,178.53615429997444,178.53615429997444,0.027783500030636787,180.82478589983657,[-0.04814814814814815],[-0.18703703703703703],[1],[0],[0],[2.300515500130132],['target'],713399,001,2024-10-07_20h13.10.287,visualsearch,2024.1.5,None,2024-10-07 20h13.17.467068 +0530,
105,0,105,0,180.86100759985857,,180.8303222998511,5,180.86100759985857,180.86100759985857,0.024399499874562025,181.92090020002797,[0.3074074074074074],[-0.3138888888888889],[1],[0],[0],[1.0666186001617461],['target'],713399,001,2024-10-07_20h13.10.287,visualsearch,2024.1.5,None,2024-10-07 20h13.17.467068 +0530,
106,0,106,0,181.948391799815,,181.92625859985128,5,181.948391799815,181.948391799815,0.01636079978197813,182.93627059995197,[-0.12962962962962962],[-0.09814814814814815],[1],[0],[0],[0.9942088001407683],['target'],713399,001,2024-10-07_20h13.10.287,visualsearch,2024.1.5,None,2024-10-07 20h13.17.467068 +0530,
107,0,107,0,182.9752223000396,,182.94356359983794,5,182.9752223000396,182.9752223000396,0.025727199856191874,185.51885250001214,[-0.1787037037037037],[0.48518518518518516],[1],[0],[0],[2.551109799882397],['target'],713399,001,2024-10-07_20h13.10.287,visualsearch,2024.1.5,None,2024-10-07 20h13.17.467068 +0530,
108,0,108,0,185.56679439987056,,185.52516179997474,10,185.56679439987056,185.56679439987056,0.030427700141444802,186.9550987998955,[-0.07592592592592592],[0.09722222222222222],[1],[0],[0],[1.400265800068155],['target'],713399,001,2024-10-07_20h13.10.287,visualsearch,2024.1.5,None,2024-10-07 20h13.17.467068 +0530,
109,0,109,0,187.00177289987914,,186.9583290000446,10,187.00177289987914,187.00177289987914,0.02426269999705255,190.41742469999008,[-0.16666666666666666],[0.412962962962963],[1],[0],[0],[3.435013899812475],['target'],713399,001,2024-10-07_20h13.10.287,visualsearch,2024.1.5,None,2024-10-07 20h13.17.467068 +0530,
110,0,110,0,190.464506899938,,190.4202022999525,10,190.464506899938,190.464506899938,0.02371610002592206,194.53384379995987,[-0.4462962962962963],[0.36018518518518516],[1],[0],[0],[4.090024699922651],['target'],713399,001,2024-10-07_20h13.10.287,visualsearch,2024.1.5,None,2024-10-07 20h13.17.467068 +0530,
111,0,111,0,194.59314569993876,,194.53687439998612,10,194.59314569993876,194.59314569993876,0.03077589999884367,196.16747669992037,[0.16574074074074074],[0.046296296296296294],[1],[0],[0],[1.599956399993971],['target'],713399,001,2024-10-07_20h13.10.287,visualsearch,2024.1.5,None,2024-10-07 20h13.17.467068 +0530,
112,0,112,0,196.19305699993856,,196.17076609982178,5,196.19305699993856,196.19305699993856,0.01516119996085763,197.79947640001774,[-0.35462962962962963],[-0.0787037037037037],[1],[0],[0],[1.6138188999611884],['target'],713399,001,2024-10-07_20h13.10.287,visualsearch,2024.1.5,None,2024-10-07 20h13.17.467068 +0530,
113,0,113,0,197.84296379983425,,197.80401539988816,10,197.84296379983425,197.84296379983425,0.02681150007992983,199.02624689997174,[-0.4925925925925926],[-0.03981481481481482],[1],[0],[0],[1.1957902000285685],['target'],713399,001,2024-10-07_20h13.10.287,visualsearch,2024.1.5,None,2024-10-07 20h13.17.467068 +0530,
114,0,114,0,199.07310889987275,,199.02900199987926,10,199.07310889987275,199.07310889987275,0.02608960005454719,200.43681590002961,[-0.10925925925925926],[0.225],[1],[0],[0],[1.3819810999557376],['target'],713399,001,2024-10-07_20h13.10.287,visualsearch,2024.1.5,None,2024-10-07 20h13.17.467068 +0530,
115,0,115,0,200.46618669992313,,200.44076709984802,5,200.46618669992313,200.46618669992313,0.016671100165694952,201.92885120003484,[-0.17685185185185184],[-0.2861111111111111],[1],[0],[0],[1.4711327999830246],['target'],713399,001,2024-10-07_20h13.10.287,visualsearch,2024.1.5,None,2024-10-07 20h13.17.467068 +0530,
116,0,116,0,201.9853091998957,,201.9362696998287,10,201.9853091998957,201.9853091998957,0.03871180000714958,202.64310609991662,[-0.14351851851851852],[-0.21203703703703702],[1],[0],[0],[0.6690309999976307],['target'],713399,001,2024-10-07_20h13.10.287,visualsearch,2024.1.5,None,2024-10-07 20h13.17.467068 +0530,
117,0,117,0,202.69063359987922,,202.64598899986595,10,202.69063359987922,202.69063359987922,0.026575000025331974,204.46668339986354,[-0.16203703703703703],[0.3398148148148148],[1],[0],[0],[1.7939220999833196],['target'],713399,001,2024-10-07_20h13.10.287,visualsearch,2024.1.5,None,2024-10-07 20h13.17.467068 +0530,
118,0,118,0,204.4960352999624,,204.469883200014,5,204.4960352999624,204.4960352999624,0.017225000075995922,206.34174890001304,[-0.2861111111111111],[-0.2101851851851852],[1],[0],[0],[1.8548314999789],['target'],713399,001,2024-10-07_20h13.10.287,visualsearch,2024.1.5,None,2024-10-07 20h13.17.467068 +0530,
119,0,119,0,206.36501919990405,,206.34539609984495,5,206.36501919990405,206.36501919990405,0.01384300016798079,207.38721499987878,[0.1712962962962963],[0.10462962962962963],[1],[0],[0],[1.0280339000746608],['target'],713399,001,2024-10-07_20h13.10.287,visualsearch,2024.1.5,None,2024-10-07 20h13.17.467068 +0530,
120,0,120,0,207.4228042999748,,207.3926390998531,5,207.4228042999748,207.4228042999748,0.022538600023835897,208.47069879993796,[0.3333333333333333],[-0.05740740740740741],[1],[0],[0],[1.0559390000998974],['target'],713399,001,2024-10-07_20h13.10.287,visualsearch,2024.1.5,None,2024-10-07 20h13.17.467068 +0530,
121,0,121,0,208.50151359988376,,208.476617799839,5,208.50151359988376,208.50151359988376,0.019469999941065907,209.91948529984802,[0.4740740740740741],[0.23148148148148148],[1],[0],[0],[1.424024400068447],['target'],713399,001,2024-10-07_20h13.10.287,visualsearch,2024.1.5,None,2024-10-07 20h13.17.467068 +0530,
122,0,122,0,209.97291000001132,,209.92612309986725,10,209.97291000001132,209.97291000001132,0.0332315000705421,213.77655579987913,[0.10462962962962963],[0.4888888888888889],[1],[0],[0],[3.8179921000264585],['target'],713399,001,2024-10-07_20h13.10.287,visualsearch,2024.1.5,None,2024-10-07 20h13.17.467068 +0530,
123,0,123,0,213.80945719988085,,213.7813901999034,5,213.80945719988085,213.80945719988085,0.020752300042659044,215.83520779991522,[0.3398148148148148],[0.07962962962962963],[1],[0],[0],[2.0335194000508636],['target'],713399,001,2024-10-07_20h13.10.287,visualsearch,2024.1.5,None,2024-10-07 20h13.17.467068 +0530,
124,0,124,0,215.8607622999698,,215.83973929984495,5,215.8607622999698,215.8607622999698,0.015297100180760026,217.09791899984702,[-0.04537037037037037],[0.32407407407407407],[1],[0],[0],[1.2431109000463039],['target'],713399,001,2024-10-07_20h13.10.287,visualsearch,2024.1.5,None,2024-10-07 20h13.17.467068 +0530,
125,0,125,0,217.12328659999184,,217.10254889982753,5,217.12328659999184,217.12328659999184,0.015329800080507994,218.24644439993426,[0.026851851851851852],[0.14351851851851852],[1],[0],[0],[1.1290959001053125],['target'],713399,001,2024-10-07_20h13.10.287,visualsearch,2024.1.5,None,2024-10-07 20h13.17.467068 +0530,
126,0,126,0,218.30346359987743,,218.25248889997602,10,218.30346359987743,218.30346359987743,0.03807669994421303,220.61695399996825,[-0.49444444444444446],[0.06296296296296296],[1],[0],[0],[2.3271457999944687],['target'],713399,001,2024-10-07_20h13.10.287,visualsearch,2024.1.5,None,2024-10-07 20h13.17.467068 +0530,
127,0,127,0,220.64458570000716,,220.6212116999086,5,220.64458570000716,220.64458570000716,0.0179065999109298,222.47908249986358,[0.009259259259259259],[0.4361111111111111],[1],[0],[0],[1.839513499988243],['target'],713399,001,2024-10-07_20h13.10.287,visualsearch,2024.1.5,None,2024-10-07 20h13.17.467068 +0530,
128,0,128,0,222.532156100031,,222.48596700001508,10,222.532156100031,222.532156100031,0.03232840006239712,223.31784309982322,[0.03888888888888889],[0.3435185185185185],[1],[0],[0],[0.80008490011096],['target'],713399,001,2024-10-07_20h13.10.287,visualsearch,2024.1.5,None,2024-10-07 20h13.17.467068 +0530,
129,0,129,0,223.3452569998335,,223.32138039986603,5,223.3452569998335,223.3452569998335,0.014976899838075042,224.5313790999353,[-0.42777777777777776],[0.09259259259259259],[1],[0],[0],[1.1950705000199378],['target'],713399,001,2024-10-07_20h13.10.287,visualsearch,2024.1.5,None,2024-10-07 20h13.17.467068 +0530,
130,0,130,0,224.55618469999172,,224.53575599985197,5,224.55618469999172,224.55618469999172,0.014861100120469928,226.09276190004312,[-0.5009259259259259],[-0.1925925925925926],[1],[0],[0],[1.542250500060618],['target'],713399,001,2024-10-07_20h13.10.287,visualsearch,2024.1.5,None,2024-10-07 20h13.17.467068 +0530,
131,0,131,0,226.1298088999465,,226.09781659999862,5,226.1298088999465,226.1298088999465,0.022635099943727255,227.24198119994253,[0.10092592592592593],[0.3138888888888889],[1],[0],[0],[1.1214211001060903],['target'],713399,001,2024-10-07_20h13.10.287,visualsearch,2024.1.5,None,2024-10-07 20h13.17.467068 +0530,
132,0,132,0,227.28493659989908,,227.2481408000458,5,227.28493659989908,227.28493659989908,0.028069299878552556,229.7402215998154,[-0.3472222222222222],[-0.35833333333333334],[1],[0],[0],[2.4644897000398487],['target'],713399,001,2024-10-07_20h13.10.287,visualsearch,2024.1.5,None,2024-10-07 20h13.17.467068 +0530,
133,0,133,0,229.76753559987992,,229.74493769998662,5,229.76753559987992,229.76753559987992,0.015784800052642822,231.02252510003746,[-0.4185185185185185],[0.07685185185185185],[1],[0],[0],[1.2616443000733852],['target'],713399,001,2024-10-07_20h13.10.287,visualsearch,2024.1.5,None,2024-10-07 20h13.17.467068 +0530,
134,0,134,0,231.07671579997987,,231.02775159990415,10,231.07671579997987,231.07671579997987,0.03540319995954633,232.1080149000045,[-0.487962962962963],[0.049074074074074076],[1],[0],[0],[1.04554419987835],['target'],713399,001,2024-10-07_20h13.10.287,visualsearch,2024.1.5,None,2024-10-07 20h13.17.467068 +0530,
135,0,135,0,232.16883819992654,,232.11233689985238,10,232.16883819992654,232.16883819992654,0.03115219995379448,233.17407769989222,[-0.47314814814814815],[0.22592592592592592],[1],[0],[0],[1.030718700028956],['target'],713399,001,2024-10-07_20h13.10.287,visualsearch,2024.1.5,None,2024-10-07 20h13.17.467068 +0530,
136,0,136,0,233.2339015000034,,233.1769709000364,10,233.2339015000034,233.2339015000034,0.031066699884831905,236.28713670000434,[-0.2564814814814815],[-0.33611111111111114],[1],[0],[0],[3.0791588998399675],['target'],713399,001,2024-10-07_20h13.10.287,visualsearch,2024.1.5,None,2024-10-07 20h13.17.467068 +0530,
137,0,137,0,236.3121519999113,,236.29095959989354,5,236.3121519999113,236.3121519999113,0.0142858000472188,238.83543569990434,[-0.09351851851851851],[-0.3675925925925926],[1],[0],[0],[2.5300576998852193],['target'],713399,001,2024-10-07_20h13.10.287,visualsearch,2024.1.5,None,2024-10-07 20h13.17.467068 +0530,
138,0,138,0,238.8913061998319,,238.84153770003468,10,238.8913061998319,238.8913061998319,0.03797800000756979,240.98467519995756,[0.21296296296296297],[0.01574074074074074],[1],[0],[0],[2.1063739999663085],['target'],713399,001,2024-10-07_20h13.10.287,visualsearch,2024.1.5,None,2024-10-07 20h13.17.467068 +0530,
139,0,139,0,241.01698059984483,,240.9876144998707,5,241.01698059984483,241.01698059984483,0.01886649988591671,242.36612659995444,[0.3212962962962963],[-0.3074074074074074],[1],[0],[0],[1.35947209992446],['target'],713399,001,2024-10-07_20h13.10.287,visualsearch,2024.1.5,None,2024-10-07 20h13.17.467068 +0530,
140,0,140,0,242.41616829996929,,242.37308769999072,10,242.41616829996929,242.41616829996929,0.031869899947196245,246.5191112998873,[0.16296296296296298],[-0.05],[1],[0],[0],[4.115323399892077],['target'],713399,001,2024-10-07_20h13.10.287,visualsearch,2024.1.5,None,2024-10-07 20h13.17.467068 +0530,
141,0,141,0,246.54309229995124,,246.52284309989773,5,246.54309229995124,246.54309229995124,0.013323500053957105,248.48076559999026,[0.15648148148148147],[-0.14722222222222223],[1],[0],[0],[1.9446059002075344],['target'],713399,001,2024-10-07_20h13.10.287,visualsearch,2024.1.5,None,2024-10-07 20h13.17.467068 +0530,
142,0,142,0,248.5122586998623,,248.48715019994415,5,248.5122586998623,248.5122586998623,0.017825700109824538,249.97751570004039,[0.07314814814814814],[0.3851851851851852],[1],[0],[0],[1.472906099865213],['target'],713399,001,2024-10-07_20h13.10.287,visualsearch,2024.1.5,None,2024-10-07 20h13.17.467068 +0530,
143,0,143,0,250.01072579994798,,249.98402630002238,5,250.01072579994798,250.01072579994798,0.021076400065794587,251.0639591999352,[-0.03518518518518519],[0.26296296296296295],[1],[0],[0],[1.0595962000079453],['target'],713399,001,2024-10-07_20h13.10.287,visualsearch,2024.1.5,None,2024-10-07 20h13.17.467068 +0530,
144,0,144,0,251.09193390002474,,251.06931229983456,5,251.09193390002474,251.09193390002474,0.01632389985024929,252.04481399990618,[0.05555555555555555],[0.45555555555555555],[1],[0],[0],[0.9595927998889238],['target'],713399,001,2024-10-07_20h13.10.287,visualsearch,2024.1.5,None,2024-10-07 20h13.17.467068 +0530,
145,0,145,0,252.07370519987307,,252.05038179992698,5,252.07370519987307,252.07370519987307,0.016441100044175982,253.4416661998257,[0.3990740740740741],[-0.24074074074074073],[1],[0],[0],[1.3753589999396354],['target'],713399,001,2024-10-07_20h13.10.287,visualsearch,2024.1.5,None,2024-10-07 20h13.17.467068 +0530,
146,0,146,0,253.48898949986324,,253.44751650001854,10,253.48898949986324,253.48898949986324,0.028730900026857853,254.74012909992598,[0.2972222222222222],[0.1574074074074074],[1],[0],[0],[1.2644038000144064],['target'],713399,001,2024-10-07_20h13.10.287,visualsearch,2024.1.5,None,2024-10-07 20h13.17.467068 +0530,
147,0,147,0,254.76518290000968,,254.74497819994576,5,254.76518290000968,254.76518290000968,0.01529589993879199,256.6446437998675,[-0.48703703703703705],[0.4583333333333333],[1],[0],[0],[1.8844890999607742],[],713399,001,2024-10-07_20h13.10.287,visualsearch,2024.1.5,None,2024-10-07 20h13.17.467068 +0530,
148,0,148,0,256.6832867998164,,256.6509948000312,5,256.6832867998164,256.6832867998164,0.022955100052058697,258.4052432999015,[0.44722222222222224],[-0.021296296296296296],[1],[0],[0],[1.7319950999226421],['target'],713399,001,2024-10-07_20h13.10.287,visualsearch,2024.1.5,None,2024-10-07 20h13.17.467068 +0530,
149,0,149,0,258.4601861999836,,258.4113351998385,10,258.4601861999836,258.4601861999836,0.03657950018532574,260.4894440998323,[0.15555555555555556],[-0.175],[1],[0],[0],[2.0423444001935422],[],713399,001,2024-10-07_20h13.10.287,visualsearch,2024.1.5,None,2024-10-07 20h13.17.467068 +0530,
150,0,150,0,260.54131089989096,,260.494812999852,10,260.54131089989096,260.54131089989096,0.027811799896880984,266.30127219995484,[-0.5027777777777778],[0.1935185185185185],[1],[0],[0],[5.779349599964917],['target'],713399,001,2024-10-07_20h13.10.287,visualsearch,2024.1.5,None,2024-10-07 20h13.17.467068 +0530,
151,0,151,0,266.32323329988867,,266.3042410998605,5,266.32323329988867,266.32323329988867,0.012920999899506569,267.77024749992415,[0.10555555555555556],[-0.19814814814814816],[1],[0],[0],[1.4530007001012564],['target'],713399,001,2024-10-07_20h13.10.287,visualsearch,2024.1.5,None,2024-10-07 20h13.17.467068 +0530,
152,0,152,0,267.8301192999352,,267.77564070001245,10,267.8301192999352,267.8301192999352,0.041946399956941605,269.05055189994164,[0.006481481481481481],[-0.14907407407407408],[1],[0],[0],[1.2336204999592155],['target'],713399,001,2024-10-07_20h13.10.287,visualsearch,2024.1.5,None,2024-10-07 20h13.17.467068 +0530,
153,0,153,0,269.08321189996786,,269.0550167998299,5,269.08321189996786,269.08321189996786,0.021186199970543385,270.180705799954,[0.3101851851851852],[-0.2574074074074074],[1],[0],[0],[1.1050245000515133],['target'],713399,001,2024-10-07_20h13.10.287,visualsearch,2024.1.5,None,2024-10-07 20h13.17.467068 +0530,
154,0,154,0,270.21057199989446,,270.18481200002134,5,270.21057199989446,270.21057199989446,0.014572599902749062,271.4298235999886,[0.12777777777777777],[0.17777777777777778],[1],[0],[0],[1.2305580999236554],['target'],713399,001,2024-10-07_20h13.10.287,visualsearch,2024.1.5,None,2024-10-07 20h13.17.467068 +0530,
155,0,155,0,271.4915876998566,,271.4354047998786,10,271.4915876998566,271.4915876998566,0.044114200165495276,275.0168796000071,[-0.4861111111111111],[0.462037037037037],[1],[0],[0],[3.5380796999670565],['target'],713399,001,2024-10-07_20h13.10.287,visualsearch,2024.1.5,None,2024-10-07 20h13.17.467068 +0530,
156,0,156,0,275.0416774000041,,275.0207903999835,5,275.0416774000041,275.0416774000041,0.014460199978202581,276.2603422999382,[-0.15185185185185185],[-0.1175925925925926],[1],[0],[0],[1.225279400125146],['target'],713399,001,2024-10-07_20h13.10.287,visualsearch,2024.1.5,None,2024-10-07 20h13.17.467068 +0530,
157,0,157,0,276.3059991998598,,276.26563080004416,10,276.3059991998598,276.3059991998598,0.02760679996572435,278.2457881998271,[-0.35555555555555557],[-0.27685185185185185],[1],[0],[0],[1.9530937001109123],['target'],713399,001,2024-10-07_20h13.10.287,visualsearch,2024.1.5,None,2024-10-07 20h13.17.467068 +0530,
158,0,158,0,278.2941083998885,,278.24855150002986,10,278.2941083998885,278.2941083998885,0.025295100174844265,279.84084869991057,[0.12314814814814815],[0.006481481481481481],[1],[0],[0],[1.567035499960184],['target'],713399,001,2024-10-07_20h13.10.287,visualsearch,2024.1.5,None,2024-10-07 20h13.17.467068 +0530,
159,0,159,0,279.89255549991503,,279.84371099993587,10,279.89255549991503,279.89255549991503,0.024441499961540103,281.1093258999754,[0.021296296296296296],[-0.11666666666666667],[1],[0],[0],[1.2413644001353532],['target'],713399,001,2024-10-07_20h13.10.287,visualsearch,2024.1.5,None,2024-10-07 20h13.17.467068 +0530,
160,0,160,0,281.165089600021,,281.1125457000453,10,281.165089600021,281.165089600021,0.024312499910593033,286.62642079987563,[-0.25833333333333336],[-0.23981481481481481],[1],[0],[0],[5.489698600023985],['target'],713399,001,2024-10-07_20h13.10.287,visualsearch,2024.1.5,None,2024-10-07 20h13.17.467068 +0530,
161,0,161,0,286.6513759000227,,286.62931340001523,5,286.6513759000227,286.6513759000227,0.013018800178542733,288.240887099877,[-0.28055555555555556],[0.3509259259259259],[1],[0],[0],[1.5982334001455456],['target'],713399,001,2024-10-07_20h13.10.287,visualsearch,2024.1.5,None,2024-10-07 20h13.17.467068 +0530,
162,0,162,0,288.2707618998829,,288.247246599989,5,288.2707618998829,288.2707618998829,0.0179838000331074,289.6354584998917,[-0.041666666666666664],[-0.004629629629629629],[1],[0],[0],[1.3709764999803156],['target'],713399,001,2024-10-07_20h13.10.287,visualsearch,2024.1.5,None,2024-10-07 20h13.17.467068 +0530,
163,0,163,0,289.66473659989424,,289.6411651999224,5,289.66473659989424,289.66473659989424,0.01795750018209219,291.35047079995275,[0.3296296296296296],[0.27685185185185185],[1],[0],[0],[1.6919805998913944],['target'],713399,001,2024-10-07_20h13.10.287,visualsearch,2024.1.5,None,2024-10-07 20h13.17.467068 +0530,
164,0,164,0,291.39399269991554,,291.3544983000029,10,291.39399269991554,291.39399269991554,0.026333099929615855,294.191500299843,[-0.4601851851851852],[-0.30185185185185187],[1],[0],[0],[2.811045799870044],['target'],713399,001,2024-10-07_20h13.10.287,visualsearch,2024.1.5,None,2024-10-07 20h13.17.467068 +0530,
165,0,165,0,294.2473398000002,,294.19688929989934,10,294.2473398000002,294.2473398000002,0.030078999930992723,296.86251159990206,[0.07407407407407407],[0.475],[1],[0],[0],[2.6365189000498503],['target'],713399,001,2024-10-07_20h13.10.287,visualsearch,2024.1.5,None,2024-10-07 20h13.17.467068 +0530,
166,0,166,0,296.9159327999223,,296.8656816999428,10,296.9159327999223,296.9159327999223,0.024745099944993854,300.29888210003264,[-0.1537037037037037],[0.1712962962962963],[1],[0],[0],[3.4086508001200855],['target'],713399,001,2024-10-07_20h13.10.287,visualsearch,2024.1.5,None,2024-10-07 20h13.17.467068 +0530,
167,0,167,0,300.3524646998849,,300.3017922998406,10,300.3524646998849,300.3524646998849,0.024518100079149008,305.04974879999645,[-0.41944444444444445],[0.05462962962962963],[1],[0],[0],[4.723581800004467],['target'],713399,001,2024-10-07_20h13.10.287,visualsearch,2024.1.5,None,2024-10-07 20h13.17.467068 +0530,
168,0,168,0,305.1091354000382,,305.05291169998236,10,305.1091354000382,305.1091354000382,0.024411400081589818,306.17398369987495,[-0.2953703703703704],[0.14444444444444443],[1],[0],[0],[1.0967403000686318],['target'],713399,001,2024-10-07_20h13.10.287,visualsearch,2024.1.5,None,2024-10-07 20h13.17.467068 +0530,
169,0,169,0,306.19646539981477,,306.17686209990643,5,306.19646539981477,306.19646539981477,0.012464100029319525,307.8747451000381,[-0.030555555555555555],[-0.04351851851851852],[1],[0],[0],[1.685332499910146],[],713399,001,2024-10-07_20h13.10.287,visualsearch,2024.1.5,None,2024-10-07 20h13.17.467068 +0530,
170,0,170,0,307.9004943999462,,307.8787987998221,5,307.9004943999462,307.9004943999462,0.014285099925473332,309.15652949991636,[0.3638888888888889],[-0.062037037037037036],[1],[0],[0],[1.2634002000559121],['target'],713399,001,2024-10-07_20h13.10.287,visualsearch,2024.1.5,None,2024-10-07 20h13.17.467068 +0530,
171,0,171,0,309.2053988999687,,309.16259510000236,10,309.2053988999687,309.2053988999687,0.03066319995559752,311.2871757999528,[-0.003703703703703704],[-0.23055555555555557],[1],[0],[0],[2.0946800000965595],['target'],713399,001,2024-10-07_20h13.10.287,visualsearch,2024.1.5,None,2024-10-07 20h13.17.467068 +0530,
172,0,172,0,311.31024759984575,,311.2902673999779,5,311.31024759984575,311.31024759984575,0.012255000183358788,312.7456294000149,[0.22777777777777777],[-0.4324074074074074],[1],[0],[0],[1.4428103999234736],['target'],713399,001,2024-10-07_20h13.10.287,visualsearch,2024.1.5,None,2024-10-07 20h13.17.467068 +0530,
173,0,173,0,312.80030939984135,,312.7532112998888,10,312.80030939984135,312.80030939984135,0.032318899873644114,313.93605299992487,[0.2037037037037037],[-0.3074074074074074],[1],[0],[0],[1.1512591999489814],['target'],713399,001,2024-10-07_20h13.10.287,visualsearch,2024.1.5,None,2024-10-07 20h13.17.467068 +0530,
174,0,174,0,313.98453499982134,,313.9390779999085,10,313.98453499982134,313.98453499982134,0.026578899938613176,315.7754436999094,[-0.3074074074074074],[0.23333333333333334],[1],[0],[0],[1.809926399961114],['target'],713399,001,2024-10-07_20h13.10.287,visualsearch,2024.1.5,None,2024-10-07 20h13.17.467068 +0530,
175,0,175,0,315.7988599999808,,315.77819509990513,5,315.7988599999808,315.7988599999808,0.012775700073689222,317.2350671000313,[0.08425925925925926],[0.39444444444444443],[1],[0],[0],[1.4438420000951737],['target'],713399,001,2024-10-07_20h13.10.287,visualsearch,2024.1.5,None,2024-10-07 20h13.17.467068 +0530,
176,0,176,0,317.28314840001985,,317.23996489983983,10,317.28314840001985,317.28314840001985,0.02883780002593994,318.6039638000075,[-0.22962962962962963],[-0.1814814814814815],[1],[0],[0],[1.3355869001243263],[],713399,001,2024-10-07_20h13.10.287,visualsearch,2024.1.5,None,2024-10-07 20h13.17.467068 +0530,
177,0,177,0,318.62820030003786,,318.60783359990455,5,318.62820030003786,318.62820030003786,0.01462629996240139,319.76683719991706,[0.030555555555555555],[-0.27685185185185185],[1],[0],[0],[1.1445624998304993],['target'],713399,001,2024-10-07_20h13.10.287,visualsearch,2024.1.5,None,2024-10-07 20h13.17.467068 +0530,
178,0,178,0,319.80137249990366,,319.77345309988596,5,319.80137249990366,319.80137249990366,0.022444100119173527,320.96553829987533,[-0.16666666666666666],[-0.2814814814814815],[1],[0],[0],[1.1704478000756353],['target'],713399,001,2024-10-07_20h13.10.287,visualsearch,2024.1.5,None,2024-10-07 20h13.17.467068 +0530,
179,0,179,0,321.0170706999488,,320.9727780998219,10,321.0170706999488,321.0170706999488,0.032192999962717295,325.1907073999755,[-0.5222222222222223],[0.2777777777777778],[1],[0],[0],[4.186912799952552],[],713399,001,2024-10-07_20h13.10.287,visualsearch,2024.1.5,None,2024-10-07 20h13.17.467068 +0530,
180,0,180,0,325.246293499833,,325.1951760998927,10,325.246293499833,325.246293499833,0.031250600004568696,326.5085376999341,[-0.08611111111111111],[0.42592592592592593],[1],[0],[0],[1.2824311000294983],['target'],713399,001,2024-10-07_20h13.10.287,visualsearch,2024.1.5,None,2024-10-07 20h13.17.467068 +0530,
181,0,181,0,326.5656146998517,,326.51138659985736,10,326.5656146998517,326.5656146998517,0.02687639999203384,328.50017629982904,[0.31666666666666665],[-0.06388888888888888],[1],[0],[0],[1.9620504998601973],['target'],713399,001,2024-10-07_20h13.10.287,visualsearch,2024.1.5,None,2024-10-07 20h13.17.467068 +0530,
182,0,182,0,328.565712899901,,328.5038558000233,10,328.565712899901,328.565712899901,0.032089400105178356,329.84041149984114,[0.0787037037037037],[0.28888888888888886],[1],[0],[0],[1.304618100170046],['target'],713399,001,2024-10-07_20h13.10.287,visualsearch,2024.1.5,None,2024-10-07 20h13.17.467068 +0530,
183,0,183,0,329.8649281999096,,329.84408159996383,5,329.8649281999096,329.8649281999096,0.014053700026124716,331.3932962999679,[0.08518518518518518],[0.22870370370370371],[1],[0],[0],[1.5349826000165194],[],713399,001,2024-10-07_20h13.10.287,visualsearch,2024.1.5,None,2024-10-07 20h13.17.467068 +0530,
184,0,184,0,331.4389741998166,,331.3986043999903,10,331.4389741998166,331.4389741998166,0.027666599955409765,332.4952795000281,[-0.35833333333333334],[0.24722222222222223],[1],[0],[0],[1.0696117000188679],[],713399,001,2024-10-07_20h13.10.287,visualsearch,2024.1.5,None,2024-10-07 20h13.17.467068 +0530,
185,0,185,0,332.5482530000154,,332.4996181000024,10,332.5482530000154,332.5482530000154,0.0298528999555856,333.83877219981514,[0.06481481481481481],[-0.03148148148148148],[1],[0],[0],[1.3095980999059975],['target'],713399,001,2024-10-07_20h13.10.287,visualsearch,2024.1.5,None,2024-10-07 20h13.17.467068 +0530,
186,0,186,0,333.8940564999357,,333.841847299831,10,333.8940564999357,333.8940564999357,0.02797099994495511,340.8799669998698,[0.21666666666666667],[0.2824074074074074],[1],[0],[0],[7.010264300042763],['target'],713399,001,2024-10-07_20h13.10.287,visualsearch,2024.1.5,None,2024-10-07 20h13.17.467068 +0530,
187,0,187,0,340.9397562998347,,340.8829397999216,10,340.9397562998347,340.9397562998347,0.02662139991298318,342.2053558998741,[-0.06018518518518518],[0.2351851851851852],[1],[0],[0],[1.2960099000483751],['target'],713399,001,2024-10-07_20h13.10.287,visualsearch,2024.1.5,None,2024-10-07 20h13.17.467068 +0530,
188,0,188,0,342.2326473998837,,342.2099897998851,5,342.2326473998837,342.2326473998837,0.017168099991977215,343.80190139985643,[0.13240740740740742],[-0.3592592592592593],[1],[0],[0],[1.5750774999614805],['target'],713399,001,2024-10-07_20h13.10.287,visualsearch,2024.1.5,None,2024-10-07 20h13.17.467068 +0530,
189,0,189,0,343.83349730004556,,343.8068829998374,5,343.83349730004556,343.83349730004556,0.0192288001999259,344.6173555999994,[0.24259259259259258],[-0.37222222222222223],[1],[0],[0],[0.7910168000962585],['target'],713399,001,2024-10-07_20h13.10.287,visualsearch,2024.1.5,None,2024-10-07 20h13.17.467068 +0530,
190,0,190,0,344.6600579000078,,344.62122089997865,10,344.6600579000078,344.6600579000078,0.0253175999969244,345.9858416998759,[0.375],[-0.21481481481481482],[1],[0],[0],[1.3393012001179159],['target'],713399,001,2024-10-07_20h13.10.287,visualsearch,2024.1.5,None,2024-10-07 20h13.17.467068 +0530,
191,0,191,0,346.0404476998374,,345.9915405998472,10,346.0404476998374,346.0404476998374,0.030118399998173118,347.1552554999944,[0.31296296296296294],[-0.375],[1],[0],[0],[1.1343324999324977],['target'],713399,001,2024-10-07_20h13.10.287,visualsearch,2024.1.5,None,2024-10-07 20h13.17.467068 +0530,
192,0,192,0,347.21320119989105,,347.1596770999022,10,347.21320119989105,347.21320119989105,0.03027250012382865,350.768098999979,[0.1388888888888889],[-0.21851851851851853],[1],[0],[0],[3.578510700026527],['target'],713399,001,2024-10-07_20h13.10.287,visualsearch,2024.1.5,None,2024-10-07 20h13.17.467068 +0530,
193,0,193,0,350.8256769999862,,350.7718260998372,10,350.8256769999862,350.8256769999862,0.02572669996879995,355.6797624998726,[-0.06574074074074074],[0.002777777777777778],[1],[0],[0],[4.882386100012809],[],713399,001,2024-10-07_20h13.10.287,visualsearch,2024.1.5,None,2024-10-07 20h13.17.467068 +0530,
194,0,194,0,355.70294460002333,,355.6825851998292,5,355.70294460002333,355.70294460002333,0.01266469992697239,357.1498094999697,[-0.1935185185185185],[-0.2972222222222222],[1],[0],[0],[1.4537753998301923],['target'],713399,001,2024-10-07_20h13.10.287,visualsearch,2024.1.5,None,2024-10-07 20h13.17.467068 +0530,
195,0,195,0,357.19707509991713,,357.1543421000242,10,357.19707509991713,357.19707509991713,0.028466099873185158,358.14166199998,[0.1287037037037037],[-0.3148148148148148],[1],[0],[0],[0.9593843999318779],['target'],713399,001,2024-10-07_20h13.10.287,visualsearch,2024.1.5,None,2024-10-07 20h13.17.467068 +0530,
196,0,196,0,358.18907550000586,,358.1444651999045,10,358.18907550000586,358.18907550000586,0.02572929998859763,360.8507948999759,[-0.48148148148148145],[-0.02962962962962963],[1],[0],[0],[2.6807770000305027],['target'],713399,001,2024-10-07_20h13.10.287,visualsearch,2024.1.5,None,2024-10-07 20h13.17.467068 +0530,
197,0,197,0,360.9008885000367,,360.85362049983814,10,360.9008885000367,360.9008885000367,0.024523699888959527,363.1846910000313,[0.2796296296296296],[0.262037037037037],[1],[0],[0],[2.306585099780932],['target'],713399,001,2024-10-07_20h13.10.287,visualsearch,2024.1.5,None,2024-10-07 20h13.17.467068 +0530,
198,0,198,0,363.2088738998864,,363.1878509998787,5,363.2088738998864,363.2088738998864,0.013097499962896109,364.4391947998665,[-0.04259259259259259],[0.45925925925925926],[1],[0],[0],[1.2379606999456882],['target'],713399,001,2024-10-07_20h13.10.287,visualsearch,2024.1.5,None,2024-10-07 20h13.17.467068 +0530,
199,0,199,0,364.47478119982406,,364.44583319989033,5,364.47478119982406,364.47478119982406,0.022092399885877967,366.17066839989275,[-0.0712962962962963],[0.3037037037037037],[1],[0],[0],[1.703264500014484],[],713399,001,2024-10-07_20h13.10.287,visualsearch,2024.1.5,None,2024-10-07 20h13.17.467068 +0530,
